time,acceX,acceY,acceZ,gyroX,gyroY,gyroZ
0.0394589900970459,,0,0,0,0
0.0439000129699707,,0,0,0,0
0.04532504081726074,,0,0,0,0
0.046189069747924805,,0,0,0,0
0.04696393013000488,,0,0,0,0
0.04872894287109375,,0,0,0,0
0.049829959869384766,,0,0,0,0
0.05107903480529785,,0,0,0,0
0.05846691131591797,,0,0,0,0
0.07603693008422852,,0,0,0,0
0.08133792877197266,,0,0,0,0
0.09453296661376953,,0,0,0,0
0.0995180606842041,,0,0,0,0
0.10832691192626953,,0,0,0,0
0.11062407493591309,,0,0,0,0
0.11296296119689941,-5.81791003418, -0.0502782348633, 8.73165345459, -0.0826033691784, 0.021183767257, -0.00692802451173
0.11403894424438477,-5.81791003418, -0.0502782348633, 8.73165345459, -0.0826033691784, 0.021183767257, -0.00692802451173
0.11486411094665527,-5.81791003418, -0.0502782348633, 8.73165345459, -0.0826033691784, 0.021183767257, -0.00692802451173
0.11566400527954102,-5.81791003418, -0.0502782348633, 8.73165345459, -0.0826033691784, 0.021183767257, -0.00692802451173
0.1164560317993164,-5.81791003418, -0.0502782348633, 8.73165345459, -0.0826033691784, 0.021183767257, -0.00692802451173
0.11732792854309082,-5.81791003418, -0.0502782348633, 8.73165345459, -0.0826033691784, 0.021183767257, -0.00692802451173
0.11870598793029785,-5.81791003418, -0.0502782348633, 8.73165345459, -0.0826033691784, 0.021183767257, -0.00692802451173
0.12004494667053223,-5.81791003418, -0.0502782348633, 8.73165345459, -0.0826033691784, 0.021183767257, -0.00692802451173
0.12110209465026855,-5.81791003418, -0.0502782348633, 8.73165345459, -0.0826033691784, 0.021183767257, -0.00692802451173
0.12235593795776367,-5.81791003418, -0.0502782348633, 8.73165345459, -0.0826033691784, 0.021183767257, -0.00692802451173
0.12345409393310547,-5.81791003418, -0.0502782348633, 8.73165345459, -0.0826033691784, 0.021183767257, -0.00692802451173
0.12452101707458496,-5.81791003418, -0.0502782348633, 8.73165345459, -0.0826033691784, 0.021183767257, -0.00692802451173
0.12564706802368164,-5.81791003418, -0.0502782348633, 8.73165345459, -0.0826033691784, 0.021183767257, -0.00692802451173
0.12686800956726074,-5.81791003418, -0.0502782348633, 8.73165345459, -0.0826033691784, 0.021183767257, -0.00692802451173
0.12791800498962402,-5.81791003418, -0.0502782348633, 8.73165345459, -0.0826033691784, 0.021183767257, -0.00692802451173
0.12903904914855957,-5.81791003418, -0.0502782348633, 8.73165345459, -0.0826033691784, 0.021183767257, -0.00692802451173
0.13025999069213867,-5.81791003418, -0.0502782348633, 8.73165345459, -0.0826033691784, 0.021183767257, -0.00692802451173
0.13121390342712402,-5.81791003418, -0.0502782348633, 8.73165345459, -0.0826033691784, 0.021183767257, -0.00692802451173
0.13210701942443848,-5.81791003418, -0.0502782348633, 8.73165345459, -0.0826033691784, 0.021183767257, -0.00692802451173
0.1329660415649414,-5.81791003418, -0.0502782348633, 8.73165345459, -0.0826033691784, 0.021183767257, -0.00692802451173
0.13413500785827637,-5.81791003418, -0.0502782348633, 8.73165345459, -0.0826033691784, 0.021183767257, -0.00692802451173
0.13616108894348145,-5.81791003418, -0.0502782348633, 8.73165345459, -0.0826033691784, 0.021183767257, -0.00692802451173
0.13898110389709473,-5.81791003418, -0.0502782348633, 8.73165345459, -0.0826033691784, 0.021183767257, -0.00692802451173
0.14078497886657715,-5.81791003418, -0.0502782348633, 8.73165345459, -0.0826033691784, 0.021183767257, -0.00692802451173
0.1426999568939209,-5.81791003418, -0.0502782348633, 8.73165345459, -0.0826033691784, 0.021183767257, -0.00692802451173
0.14438390731811523,-5.81791003418, -0.0502782348633, 8.73165345459, -0.0826033691784, 0.021183767257, -0.00692802451173
0.1455249786376953,-5.81791003418, -0.0502782348633, 8.73165345459, -0.0826033691784, 0.021183767257, -0.00692802451173
0.1466219425201416,-5.81791003418, -0.0502782348633, 8.73165345459, -0.0826033691784, 0.021183767257, -0.00692802451173
0.1477971076965332,-5.81791003418, -0.0502782348633, 8.73165345459, -0.0826033691784, 0.021183767257, -0.00692802451173
0.14948105812072754,-5.81791003418, -0.0502782348633, 8.73165345459, -0.0826033691784, 0.021183767257, -0.00692802451173
0.15085291862487793,-5.81791003418, -0.0502782348633, 8.73165345459, -0.0826033691784, 0.021183767257, -0.00692802451173
0.15238094329833984,-5.81791003418, -0.0502782348633, 8.73165345459, -0.0826033691784, 0.021183767257, -0.00692802451173
0.1536710262298584,-5.81791003418, -0.0502782348633, 8.73165345459, -0.0826033691784, 0.021183767257, -0.00692802451173
0.15489697456359863,-5.81791003418, -0.0502782348633, 8.73165345459, -0.0826033691784, 0.021183767257, -0.00692802451173
0.16702508926391602,-5.81791003418, -0.0502782348633, 8.73165345459, -0.0826033691784, 0.021183767257, -0.00692802451173
0.17001795768737793,-5.81791003418, -0.0502782348633, 8.73165345459, -0.0826033691784, 0.021183767257, -0.00692802451173
0.17216992378234863,-5.81791003418, -0.0502782348633, 8.73165345459, -0.0826033691784, 0.021183767257, -0.00692802451173
0.17407703399658203,-5.81791003418, -0.0502782348633, 8.73165345459, -0.0826033691784, 0.021183767257, -0.00692802451173
0.17628693580627441,-5.81791003418, -0.0502782348633, 8.73165345459, -0.0826033691784, 0.021183767257, -0.00692802451173
0.17815494537353516,-5.81791003418, -0.0502782348633, 8.73165345459, -0.0826033691784, 0.021183767257, -0.00692802451173
0.1794750690460205,-5.81791003418, -0.0502782348633, 8.73165345459, -0.0826033691784, 0.021183767257, -0.00692802451173
0.1805589199066162,-5.81791003418, -0.0502782348633, 8.73165345459, -0.0826033691784, 0.021183767257, -0.00692802451173
0.1820831298828125,-5.81791003418, -0.0502782348633, 8.73165345459, -0.0826033691784, 0.021183767257, -0.00692802451173
0.18345999717712402,-5.81791003418, -0.0502782348633, 8.73165345459, -0.0826033691784, 0.021183767257, -0.00692802451173
0.18469905853271484,-5.81791003418, -0.0502782348633, 8.73165345459, -0.0826033691784, 0.021183767257, -0.00692802451173
0.18594598770141602,-5.81791003418, -0.0502782348633, 8.73165345459, -0.0826033691784, 0.021183767257, -0.00692802451173
0.18705296516418457,-5.81791003418, -0.0502782348633, 8.73165345459, -0.0826033691784, 0.021183767257, -0.00692802451173
0.18832993507385254,-5.81791003418, -0.0502782348633, 8.73165345459, -0.0826033691784, 0.021183767257, -0.00692802451173
0.1896510124206543,-5.81791003418, -0.0502782348633, 8.73165345459, -0.0826033691784, 0.021183767257, -0.00692802451173
0.19095492362976074,-5.81791003418, -0.0502782348633, 8.73165345459, -0.0826033691784, 0.021183767257, -0.00692802451173
0.19235801696777344,-5.81791003418, -0.0502782348633, 8.73165345459, -0.0826033691784, 0.021183767257, -0.00692802451173
0.1935420036315918,-5.81791003418, -0.0502782348633, 8.73165345459, -0.0826033691784, 0.021183767257, -0.00692802451173
0.19457793235778809,-5.81791003418, -0.0502782348633, 8.73165345459, -0.0826033691784, 0.021183767257, -0.00692802451173
0.1956009864807129,-5.81791003418, -0.0502782348633, 8.73165345459, -0.0826033691784, 0.021183767257, -0.00692802451173
0.19703102111816406,-5.81791003418, -0.0502782348633, 8.73165345459, -0.0826033691784, 0.021183767257, -0.00692802451173
0.20099592208862305,-5.81791003418, -0.0502782348633, 8.73165345459, -0.0826033691784, 0.021183767257, -0.00692802451173
0.20406198501586914,-5.81791003418, -0.0502782348633, 8.73165345459, -0.0826033691784, 0.021183767257, -0.00692802451173
0.2063429355621338,-5.81791003418, -0.0502782348633, 8.73165345459, -0.0826033691784, 0.021183767257, -0.00692802451173
0.2084801197052002,-5.73650717773, -0.0430956298828, 8.65503900146, -0.0770076570727, 0.0230490046256, -0.00426339969953
0.20935392379760742,-5.73650717773, -0.0430956298828, 8.65503900146, -0.0770076570727, 0.0230490046256, -0.00426339969953
0.2103569507598877,-5.73650717773, -0.0430956298828, 8.65503900146, -0.0770076570727, 0.0230490046256, -0.00426339969953
0.21238994598388672,-5.73650717773, -0.0430956298828, 8.65503900146, -0.0770076570727, 0.0230490046256, -0.00426339969953
0.2138829231262207,-5.73650717773, -0.0430956298828, 8.65503900146, -0.0770076570727, 0.0230490046256, -0.00426339969953
0.2147691249847412,-5.73650717773, -0.0430956298828, 8.65503900146, -0.0770076570727, 0.0230490046256, -0.00426339969953
0.2156980037689209,-5.73650717773, -0.0430956298828, 8.65503900146, -0.0770076570727, 0.0230490046256, -0.00426339969953
0.21673202514648438,-5.73650717773, -0.0430956298828, 8.65503900146, -0.0770076570727, 0.0230490046256, -0.00426339969953
0.2183089256286621,-5.73650717773, -0.0430956298828, 8.65503900146, -0.0770076570727, 0.0230490046256, -0.00426339969953
0.21934008598327637,-5.73650717773, -0.0430956298828, 8.65503900146, -0.0770076570727, 0.0230490046256, -0.00426339969953
0.2202930450439453,-5.73650717773, -0.0430956298828, 8.65503900146, -0.0770076570727, 0.0230490046256, -0.00426339969953
0.2210559844970703,-5.73650717773, -0.0430956298828, 8.65503900146, -0.0770076570727, 0.0230490046256, -0.00426339969953
0.22207403182983398,-5.73650717773, -0.0430956298828, 8.65503900146, -0.0770076570727, 0.0230490046256, -0.00426339969953
0.22609496116638184,-5.73650717773, -0.0430956298828, 8.65503900146, -0.0770076570727, 0.0230490046256, -0.00426339969953
0.22684597969055176,-5.73650717773, -0.0430956298828, 8.65503900146, -0.0770076570727, 0.0230490046256, -0.00426339969953
0.2275691032409668,-5.73650717773, -0.0430956298828, 8.65503900146, -0.0770076570727, 0.0230490046256, -0.00426339969953
0.22844791412353516,-5.73650717773, -0.0430956298828, 8.65503900146, -0.0770076570727, 0.0230490046256, -0.00426339969953
0.22939491271972656,-5.73650717773, -0.0430956298828, 8.65503900146, -0.0770076570727, 0.0230490046256, -0.00426339969953
0.2305600643157959,-5.73650717773, -0.0430956298828, 8.65503900146, -0.0770076570727, 0.0230490046256, -0.00426339969953
0.23370099067687988,-5.73650717773, -0.0430956298828, 8.65503900146, -0.0770076570727, 0.0230490046256, -0.00426339969953
0.2353830337524414,-5.73650717773, -0.0430956298828, 8.65503900146, -0.0770076570727, 0.0230490046256, -0.00426339969953
0.23691010475158691,-5.73650717773, -0.0430956298828, 8.65503900146, -0.0770076570727, 0.0230490046256, -0.00426339969953
0.23850297927856445,-5.73650717773, -0.0430956298828, 8.65503900146, -0.0770076570727, 0.0230490046256, -0.00426339969953
0.24027490615844727,-5.73650717773, -0.0430956298828, 8.65503900146, -0.0770076570727, 0.0230490046256, -0.00426339969953
0.2417469024658203,-5.73650717773, -0.0430956298828, 8.65503900146, -0.0770076570727, 0.0230490046256, -0.00426339969953
0.24330806732177734,-5.73650717773, -0.0430956298828, 8.65503900146, -0.0770076570727, 0.0230490046256, -0.00426339969953
0.24478697776794434,-5.73650717773, -0.0430956298828, 8.65503900146, -0.0770076570727, 0.0230490046256, -0.00426339969953
0.2525210380554199,-5.73650717773, -0.0430956298828, 8.65503900146, -0.0770076570727, 0.0230490046256, -0.00426339969953
0.25535106658935547,-5.73650717773, -0.0430956298828, 8.65503900146, -0.0770076570727, 0.0230490046256, -0.00426339969953
0.2564070224761963,-5.73650717773, -0.0430956298828, 8.65503900146, -0.0770076570727, 0.0230490046256, -0.00426339969953
0.2574329376220703,-5.73650717773, -0.0430956298828, 8.65503900146, -0.0770076570727, 0.0230490046256, -0.00426339969953
0.25859904289245605,-5.73650717773, -0.0430956298828, 8.65503900146, -0.0770076570727, 0.0230490046256, -0.00426339969953
0.26006102561950684,-5.73650717773, -0.0430956298828, 8.65503900146, -0.0770076570727, 0.0230490046256, -0.00426339969953
0.26349806785583496,-5.73650717773, -0.0430956298828, 8.65503900146, -0.0770076570727, 0.0230490046256, -0.00426339969953
0.2653520107269287,-5.73650717773, -0.0430956298828, 8.65503900146, -0.0770076570727, 0.0230490046256, -0.00426339969953
0.26720499992370605,-5.73650717773, -0.0430956298828, 8.65503900146, -0.0770076570727, 0.0230490046256, -0.00426339969953
0.2692561149597168,-5.73650717773, -0.0430956298828, 8.65503900146, -0.0770076570727, 0.0230490046256, -0.00426339969953
0.27064013481140137,-5.73650717773, -0.0430956298828, 8.65503900146, -0.0770076570727, 0.0230490046256, -0.00426339969953
0.27223801612854004,-5.73650717773, -0.0430956298828, 8.65503900146, -0.0770076570727, 0.0230490046256, -0.00426339969953
0.27457308769226074,-5.73650717773, -0.0430956298828, 8.65503900146, -0.0770076570727, 0.0230490046256, -0.00426339969953
0.2760019302368164,-5.73650717773, -0.0430956298828, 8.65503900146, -0.0770076570727, 0.0230490046256, -0.00426339969953
0.27729105949401855,-5.73650717773, -0.0430956298828, 8.65503900146, -0.0770076570727, 0.0230490046256, -0.00426339969953
0.27856993675231934,-5.73650717773, -0.0430956298828, 8.65503900146, -0.0770076570727, 0.0230490046256, -0.00426339969953
0.27994513511657715,-5.73650717773, -0.0430956298828, 8.65503900146, -0.0770076570727, 0.0230490046256, -0.00426339969953
0.28113508224487305,-5.73650717773, -0.0430956298828, 8.65503900146, -0.0770076570727, 0.0230490046256, -0.00426339969953
0.28257012367248535,-5.73650717773, -0.0430956298828, 8.65503900146, -0.0770076570727, 0.0230490046256, -0.00426339969953
0.2837409973144531,-5.73650717773, -0.0430956298828, 8.65503900146, -0.0770076570727, 0.0230490046256, -0.00426339969953
0.2849750518798828,-5.73650717773, -0.0430956298828, 8.65503900146, -0.0770076570727, 0.0230490046256, -0.00426339969953
0.2861340045928955,-5.73650717773, -0.0430956298828, 8.65503900146, -0.0770076570727, 0.0230490046256, -0.00426339969953
0.2872459888458252,-5.73650717773, -0.0430956298828, 8.65503900146, -0.0770076570727, 0.0230490046256, -0.00426339969953
0.2884340286254883,-5.73650717773, -0.0430956298828, 8.65503900146, -0.0770076570727, 0.0230490046256, -0.00426339969953
0.29007506370544434,-5.73650717773, -0.0430956298828, 8.65503900146, -0.0770076570727, 0.0230490046256, -0.00426339969953
0.29215312004089355,-5.73650717773, -0.0430956298828, 8.65503900146, -0.0770076570727, 0.0230490046256, -0.00426339969953
0.29557204246520996,-5.73650717773, -0.0430956298828, 8.65503900146, -0.0770076570727, 0.0230490046256, -0.00426339969953
0.29837512969970703,-5.73650717773, -0.0430956298828, 8.65503900146, -0.0770076570727, 0.0230490046256, -0.00426339969953
0.30057501792907715,-5.73650717773, -0.0430956298828, 8.65503900146, -0.0770076570727, 0.0230490046256, -0.00426339969953
0.3032069206237793,-5.73650717773, -0.0430956298828, 8.65503900146, -0.0770076570727, 0.0230490046256, -0.00426339969953
0.3048419952392578,-5.73650717773, -0.0430956298828, 8.65503900146, -0.0770076570727, 0.0230490046256, -0.00426339969953
0.30778002738952637,-5.67186373291, -0.0383072265625, 8.78672009277, -0.0812710567723, 0.0195849923697, -0.00692802451173
0.3090779781341553,-5.67186373291, -0.0383072265625, 8.78672009277, -0.0812710567723, 0.0195849923697, -0.00692802451173
0.3104269504547119,-5.67186373291, -0.0383072265625, 8.78672009277, -0.0812710567723, 0.0195849923697, -0.00692802451173
0.31186604499816895,-5.67186373291, -0.0383072265625, 8.78672009277, -0.0812710567723, 0.0195849923697, -0.00692802451173
0.3134620189666748,-5.67186373291, -0.0383072265625, 8.78672009277, -0.0812710567723, 0.0195849923697, -0.00692802451173
0.31506800651550293,-5.67186373291, -0.0383072265625, 8.78672009277, -0.0812710567723, 0.0195849923697, -0.00692802451173
0.3163161277770996,-5.67186373291, -0.0383072265625, 8.78672009277, -0.0812710567723, 0.0195849923697, -0.00692802451173
0.3187539577484131,-5.67186373291, -0.0383072265625, 8.78672009277, -0.0812710567723, 0.0195849923697, -0.00692802451173
0.32018113136291504,-5.67186373291, -0.0383072265625, 8.78672009277, -0.0812710567723, 0.0195849923697, -0.00692802451173
0.32268404960632324,-5.67186373291, -0.0383072265625, 8.78672009277, -0.0812710567723, 0.0195849923697, -0.00692802451173
0.32588791847229004,-5.67186373291, -0.0383072265625, 8.78672009277, -0.0812710567723, 0.0195849923697, -0.00692802451173
0.3277320861816406,-5.67186373291, -0.0383072265625, 8.78672009277, -0.0812710567723, 0.0195849923697, -0.00692802451173
0.3300149440765381,-5.67186373291, -0.0383072265625, 8.78672009277, -0.0812710567723, 0.0195849923697, -0.00692802451173
0.33135509490966797,-5.67186373291, -0.0383072265625, 8.78672009277, -0.0812710567723, 0.0195849923697, -0.00692802451173
0.33277392387390137,-5.67186373291, -0.0383072265625, 8.78672009277, -0.0812710567723, 0.0195849923697, -0.00692802451173
0.33371901512145996,-5.67186373291, -0.0383072265625, 8.78672009277, -0.0812710567723, 0.0195849923697, -0.00692802451173
0.33454012870788574,-5.67186373291, -0.0383072265625, 8.78672009277, -0.0812710567723, 0.0195849923697, -0.00692802451173
0.33562612533569336,-5.67186373291, -0.0383072265625, 8.78672009277, -0.0812710567723, 0.0195849923697, -0.00692802451173
0.3369770050048828,-5.67186373291, -0.0383072265625, 8.78672009277, -0.0812710567723, 0.0195849923697, -0.00692802451173
0.3380579948425293,-5.67186373291, -0.0383072265625, 8.78672009277, -0.0812710567723, 0.0195849923697, -0.00692802451173
0.339047908782959,-5.67186373291, -0.0383072265625, 8.78672009277, -0.0812710567723, 0.0195849923697, -0.00692802451173
0.3407011032104492,-5.67186373291, -0.0383072265625, 8.78672009277, -0.0812710567723, 0.0195849923697, -0.00692802451173
0.3422219753265381,-5.67186373291, -0.0383072265625, 8.78672009277, -0.0812710567723, 0.0195849923697, -0.00692802451173
0.34377503395080566,-5.67186373291, -0.0383072265625, 8.78672009277, -0.0812710567723, 0.0195849923697, -0.00692802451173
0.34507298469543457,-5.67186373291, -0.0383072265625, 8.78672009277, -0.0812710567723, 0.0195849923697, -0.00692802451173
0.346390962600708,-5.67186373291, -0.0383072265625, 8.78672009277, -0.0812710567723, 0.0195849923697, -0.00692802451173
0.34756898880004883,-5.67186373291, -0.0383072265625, 8.78672009277, -0.0812710567723, 0.0195849923697, -0.00692802451173
0.3500690460205078,-5.67186373291, -0.0383072265625, 8.78672009277, -0.0812710567723, 0.0195849923697, -0.00692802451173
0.3517470359802246,-5.67186373291, -0.0383072265625, 8.78672009277, -0.0812710567723, 0.0195849923697, -0.00692802451173
0.3538351058959961,-5.67186373291, -0.0383072265625, 8.78672009277, -0.0812710567723, 0.0195849923697, -0.00692802451173
0.3566720485687256,-5.67186373291, -0.0383072265625, 8.78672009277, -0.0812710567723, 0.0195849923697, -0.00692802451173
0.3588590621948242,-5.67186373291, -0.0383072265625, 8.78672009277, -0.0812710567723, 0.0195849923697, -0.00692802451173
0.36092495918273926,-5.67186373291, -0.0383072265625, 8.78672009277, -0.0812710567723, 0.0195849923697, -0.00692802451173
0.3628849983215332,-5.67186373291, -0.0383072265625, 8.78672009277, -0.0812710567723, 0.0195849923697, -0.00692802451173
0.364483118057251,-5.67186373291, -0.0383072265625, 8.78672009277, -0.0812710567723, 0.0195849923697, -0.00692802451173
0.3655250072479248,-5.67186373291, -0.0383072265625, 8.78672009277, -0.0812710567723, 0.0195849923697, -0.00692802451173
0.3667309284210205,-5.67186373291, -0.0383072265625, 8.78672009277, -0.0812710567723, 0.0195849923697, -0.00692802451173
0.3681340217590332,-5.67186373291, -0.0383072265625, 8.78672009277, -0.0812710567723, 0.0195849923697, -0.00692802451173
0.36942601203918457,-5.67186373291, -0.0383072265625, 8.78672009277, -0.0812710567723, 0.0195849923697, -0.00692802451173
0.3706960678100586,-5.67186373291, -0.0383072265625, 8.78672009277, -0.0812710567723, 0.0195849923697, -0.00692802451173
0.3724040985107422,-5.67186373291, -0.0383072265625, 8.78672009277, -0.0812710567723, 0.0195849923697, -0.00692802451173
0.3752610683441162,-5.67186373291, -0.0383072265625, 8.78672009277, -0.0812710567723, 0.0195849923697, -0.00692802451173
0.3766651153564453,-5.67186373291, -0.0383072265625, 8.78672009277, -0.0812710567723, 0.0195849923697, -0.00692802451173
0.377777099609375,-5.67186373291, -0.0383072265625, 8.78672009277, -0.0812710567723, 0.0195849923697, -0.00692802451173
0.3787350654602051,-5.67186373291, -0.0383072265625, 8.78672009277, -0.0812710567723, 0.0195849923697, -0.00692802451173
0.3799569606781006,-5.67186373291, -0.0383072265625, 8.78672009277, -0.0812710567723, 0.0195849923697, -0.00692802451173
0.3813951015472412,-5.67186373291, -0.0383072265625, 8.78672009277, -0.0812710567723, 0.0195849923697, -0.00692802451173
0.3848090171813965,-5.67186373291, -0.0383072265625, 8.78672009277, -0.0812710567723, 0.0195849923697, -0.00692802451173
0.387131929397583,-5.67186373291, -0.0383072265625, 8.78672009277, -0.0812710567723, 0.0195849923697, -0.00692802451173
0.3893239498138428,-5.67186373291, -0.0383072265625, 8.78672009277, -0.0812710567723, 0.0195849923697, -0.00692802451173
0.3910400867462158,-5.67186373291, -0.0383072265625, 8.78672009277, -0.0812710567723, 0.0195849923697, -0.00692802451173
0.392287015914917,-5.67186373291, -0.0383072265625, 8.78672009277, -0.0812710567723, 0.0195849923697, -0.00692802451173
0.39355897903442383,-5.67186373291, -0.0383072265625, 8.78672009277, -0.0812710567723, 0.0195849923697, -0.00692802451173
0.39479708671569824,-5.67186373291, -0.0383072265625, 8.78672009277, -0.0812710567723, 0.0195849923697, -0.00692802451173
0.3960139751434326,-5.67186373291, -0.0383072265625, 8.78672009277, -0.0812710567723, 0.0195849923697, -0.00692802451173
0.39716410636901855,-5.67186373291, -0.0383072265625, 8.78672009277, -0.0812710567723, 0.0195849923697, -0.00692802451173
0.3982861042022705,-5.67186373291, -0.0383072265625, 8.78672009277, -0.0812710567723, 0.0195849923697, -0.00692802451173
0.4002571105957031,-5.67186373291, -0.0383072265625, 8.78672009277, -0.0812710567723, 0.0195849923697, -0.00692802451173
0.40204310417175293,-5.67186373291, -0.0383072265625, 8.78672009277, -0.0812710567723, 0.0195849923697, -0.00692802451173
0.4035511016845703,-5.67186373291, -0.0383072265625, 8.78672009277, -0.0812710567723, 0.0195849923697, -0.00692802451173
0.4047861099243164,-5.67186373291, -0.0383072265625, 8.78672009277, -0.0812710567723, 0.0195849923697, -0.00692802451173
0.40833091735839844,-5.74608398437, -0.0909796630859, 8.75798967285, -0.0843353753063, 0.025980091919, -0.01092496173
0.4098320007324219,-5.74608398437, -0.0909796630859, 8.75798967285, -0.0843353753063, 0.025980091919, -0.01092496173
0.41106390953063965,-5.74608398437, -0.0909796630859, 8.75798967285, -0.0843353753063, 0.025980091919, -0.01092496173
0.4131150245666504,-5.74608398437, -0.0909796630859, 8.75798967285, -0.0843353753063, 0.025980091919, -0.01092496173
0.41625499725341797,-5.74608398437, -0.0909796630859, 8.75798967285, -0.0843353753063, 0.025980091919, -0.01092496173
0.41844892501831055,-5.74608398437, -0.0909796630859, 8.75798967285, -0.0843353753063, 0.025980091919, -0.01092496173
0.4206089973449707,-5.74608398437, -0.0909796630859, 8.75798967285, -0.0843353753063, 0.025980091919, -0.01092496173
0.4234299659729004,-5.74608398437, -0.0909796630859, 8.75798967285, -0.0843353753063, 0.025980091919, -0.01092496173
0.42493200302124023,-5.74608398437, -0.0909796630859, 8.75798967285, -0.0843353753063, 0.025980091919, -0.01092496173
0.4260830879211426,-5.74608398437, -0.0909796630859, 8.75798967285, -0.0843353753063, 0.025980091919, -0.01092496173
0.42702603340148926,-5.74608398437, -0.0909796630859, 8.75798967285, -0.0843353753063, 0.025980091919, -0.01092496173
0.42784810066223145,-5.74608398437, -0.0909796630859, 8.75798967285, -0.0843353753063, 0.025980091919, -0.01092496173
0.42867493629455566,-5.74608398437, -0.0909796630859, 8.75798967285, -0.0843353753063, 0.025980091919, -0.01092496173
0.4294700622558594,-5.74608398437, -0.0909796630859, 8.75798967285, -0.0843353753063, 0.025980091919, -0.01092496173
0.4305119514465332,-5.74608398437, -0.0909796630859, 8.75798967285, -0.0843353753063, 0.025980091919, -0.01092496173
0.43131399154663086,-5.74608398437, -0.0909796630859, 8.75798967285, -0.0843353753063, 0.025980091919, -0.01092496173
0.4323611259460449,-5.74608398437, -0.0909796630859, 8.75798967285, -0.0843353753063, 0.025980091919, -0.01092496173
0.43341803550720215,-5.74608398437, -0.0909796630859, 8.75798967285, -0.0843353753063, 0.025980091919, -0.01092496173
0.43436408042907715,-5.74608398437, -0.0909796630859, 8.75798967285, -0.0843353753063, 0.025980091919, -0.01092496173
0.4355659484863281,-5.74608398437, -0.0909796630859, 8.75798967285, -0.0843353753063, 0.025980091919, -0.01092496173
0.43678903579711914,-5.74608398437, -0.0909796630859, 8.75798967285, -0.0843353753063, 0.025980091919, -0.01092496173
0.4378061294555664,-5.74608398437, -0.0909796630859, 8.75798967285, -0.0843353753063, 0.025980091919, -0.01092496173
0.43874192237854004,-5.74608398437, -0.0909796630859, 8.75798967285, -0.0843353753063, 0.025980091919, -0.01092496173
0.43954992294311523,-5.74608398437, -0.0909796630859, 8.75798967285, -0.0843353753063, 0.025980091919, -0.01092496173
0.44060802459716797,-5.74608398437, -0.0909796630859, 8.75798967285, -0.0843353753063, 0.025980091919, -0.01092496173
0.4421510696411133,-5.74608398437, -0.0909796630859, 8.75798967285, -0.0843353753063, 0.025980091919, -0.01092496173
0.4438059329986572,-5.74608398437, -0.0909796630859, 8.75798967285, -0.0843353753063, 0.025980091919, -0.01092496173
0.44661998748779297,-5.74608398437, -0.0909796630859, 8.75798967285, -0.0843353753063, 0.025980091919, -0.01092496173
0.4507439136505127,-5.74608398437, -0.0909796630859, 8.75798967285, -0.0843353753063, 0.025980091919, -0.01092496173
0.45238804817199707,-5.74608398437, -0.0909796630859, 8.75798967285, -0.0843353753063, 0.025980091919, -0.01092496173
0.4537489414215088,-5.74608398437, -0.0909796630859, 8.75798967285, -0.0843353753063, 0.025980091919, -0.01092496173
0.4549601078033447,-5.74608398437, -0.0909796630859, 8.75798967285, -0.0843353753063, 0.025980091919, -0.01092496173
0.45608997344970703,-5.74608398437, -0.0909796630859, 8.75798967285, -0.0843353753063, 0.025980091919, -0.01092496173
0.45719408988952637,-5.74608398437, -0.0909796630859, 8.75798967285, -0.0843353753063, 0.025980091919, -0.01092496173
0.45831298828125,-5.74608398437, -0.0909796630859, 8.75798967285, -0.0843353753063, 0.025980091919, -0.01092496173
0.4597659111022949,-5.74608398437, -0.0909796630859, 8.75798967285, -0.0843353753063, 0.025980091919, -0.01092496173
0.46126294136047363,-5.74608398437, -0.0909796630859, 8.75798967285, -0.0843353753063, 0.025980091919, -0.01092496173
0.4628870487213135,-5.74608398437, -0.0909796630859, 8.75798967285, -0.0843353753063, 0.025980091919, -0.01092496173
0.4639899730682373,-5.74608398437, -0.0909796630859, 8.75798967285, -0.0843353753063, 0.025980091919, -0.01092496173
0.46498703956604004,-5.74608398437, -0.0909796630859, 8.75798967285, -0.0843353753063, 0.025980091919, -0.01092496173
0.46609997749328613,-5.74608398437, -0.0909796630859, 8.75798967285, -0.0843353753063, 0.025980091919, -0.01092496173
0.4672560691833496,-5.74608398437, -0.0909796630859, 8.75798967285, -0.0843353753063, 0.025980091919, -0.01092496173
0.4685699939727783,-5.74608398437, -0.0909796630859, 8.75798967285, -0.0843353753063, 0.025980091919, -0.01092496173
0.4703230857849121,-5.74608398437, -0.0909796630859, 8.75798967285, -0.0843353753063, 0.025980091919, -0.01092496173
0.4738330841064453,-5.74608398437, -0.0909796630859, 8.75798967285, -0.0843353753063, 0.025980091919, -0.01092496173
0.4755859375,-5.74608398437, -0.0909796630859, 8.75798967285, -0.0843353753063, 0.025980091919, -0.01092496173
0.47876596450805664,-5.74608398437, -0.0909796630859, 8.75798967285, -0.0843353753063, 0.025980091919, -0.01092496173
0.4808800220489502,-5.74608398437, -0.0909796630859, 8.75798967285, -0.0843353753063, 0.025980091919, -0.01092496173
0.4836559295654297,-5.74608398437, -0.0909796630859, 8.75798967285, -0.0843353753063, 0.025980091919, -0.01092496173
0.4851250648498535,-5.74608398437, -0.0909796630859, 8.75798967285, -0.0843353753063, 0.025980091919, -0.01092496173
0.48647308349609375,-5.74608398437, -0.0909796630859, 8.75798967285, -0.0843353753063, 0.025980091919, -0.01092496173
0.4877159595489502,-5.74608398437, -0.0909796630859, 8.75798967285, -0.0843353753063, 0.025980091919, -0.01092496173
0.48889899253845215,-5.74608398437, -0.0909796630859, 8.75798967285, -0.0843353753063, 0.025980091919, -0.01092496173
0.49019598960876465,-5.74608398437, -0.0909796630859, 8.75798967285, -0.0843353753063, 0.025980091919, -0.01092496173
0.491473913192749,-5.74608398437, -0.0909796630859, 8.75798967285, -0.0843353753063, 0.025980091919, -0.01092496173
0.49285411834716797,-5.74608398437, -0.0909796630859, 8.75798967285, -0.0843353753063, 0.025980091919, -0.01092496173
0.49419498443603516,-5.74608398437, -0.0909796630859, 8.75798967285, -0.0843353753063, 0.025980091919, -0.01092496173
0.4955720901489258,-5.74608398437, -0.0909796630859, 8.75798967285, -0.0843353753063, 0.025980091919, -0.01092496173
0.49684810638427734,-5.74608398437, -0.0909796630859, 8.75798967285, -0.0843353753063, 0.025980091919, -0.01092496173
0.4980330467224121,-5.74608398437, -0.0909796630859, 8.75798967285, -0.0843353753063, 0.025980091919, -0.01092496173
0.4996330738067627,-5.74608398437, -0.0909796630859, 8.75798967285, -0.0843353753063, 0.025980091919, -0.01092496173
0.5010650157928467,-5.74608398437, -0.0909796630859, 8.75798967285, -0.0843353753063, 0.025980091919, -0.01092496173
0.502648115158081,-5.74608398437, -0.0909796630859, 8.75798967285, -0.0843353753063, 0.025980091919, -0.01092496173
0.5041699409484863,-5.74608398437, -0.0909796630859, 8.75798967285, -0.0843353753063, 0.025980091919, -0.01092496173
0.5071980953216553,-5.69819995117, -0.0670376464844, 8.84418093262, -0.0728774886138, 0.0246477795129, -0.00612863706807
0.5104598999023438,-5.69819995117, -0.0670376464844, 8.84418093262, -0.0728774886138, 0.0246477795129, -0.00612863706807
0.512861967086792,-5.69819995117, -0.0670376464844, 8.84418093262, -0.0728774886138, 0.0246477795129, -0.00612863706807
0.5154209136962891,-5.69819995117, -0.0670376464844, 8.84418093262, -0.0728774886138, 0.0246477795129, -0.00612863706807
0.51761794090271,-5.69819995117, -0.0670376464844, 8.84418093262, -0.0728774886138, 0.0246477795129, -0.00612863706807
0.5195069313049316,-5.69819995117, -0.0670376464844, 8.84418093262, -0.0728774886138, 0.0246477795129, -0.00612863706807
0.521198034286499,-5.69819995117, -0.0670376464844, 8.84418093262, -0.0728774886138, 0.0246477795129, -0.00612863706807
0.5226659774780273,-5.69819995117, -0.0670376464844, 8.84418093262, -0.0728774886138, 0.0246477795129, -0.00612863706807
0.5240631103515625,-5.69819995117, -0.0670376464844, 8.84418093262, -0.0728774886138, 0.0246477795129, -0.00612863706807
0.5256710052490234,-5.69819995117, -0.0670376464844, 8.84418093262, -0.0728774886138, 0.0246477795129, -0.00612863706807
0.5271661281585693,-5.69819995117, -0.0670376464844, 8.84418093262, -0.0728774886138, 0.0246477795129, -0.00612863706807
0.5282161235809326,-5.69819995117, -0.0670376464844, 8.84418093262, -0.0728774886138, 0.0246477795129, -0.00612863706807
0.5293669700622559,-5.69819995117, -0.0670376464844, 8.84418093262, -0.0728774886138, 0.0246477795129, -0.00612863706807
0.5305609703063965,-5.69819995117, -0.0670376464844, 8.84418093262, -0.0728774886138, 0.0246477795129, -0.00612863706807
0.5319390296936035,-5.69819995117, -0.0670376464844, 8.84418093262, -0.0728774886138, 0.0246477795129, -0.00612863706807
0.5335628986358643,-5.69819995117, -0.0670376464844, 8.84418093262, -0.0728774886138, 0.0246477795129, -0.00612863706807
0.5361359119415283,-5.69819995117, -0.0670376464844, 8.84418093262, -0.0728774886138, 0.0246477795129, -0.00612863706807
0.5386641025543213,-5.69819995117, -0.0670376464844, 8.84418093262, -0.0728774886138, 0.0246477795129, -0.00612863706807
0.5407490730285645,-5.69819995117, -0.0670376464844, 8.84418093262, -0.0728774886138, 0.0246477795129, -0.00612863706807
0.5428259372711182,-5.69819995117, -0.0670376464844, 8.84418093262, -0.0728774886138, 0.0246477795129, -0.00612863706807
0.544929027557373,-5.69819995117, -0.0670376464844, 8.84418093262, -0.0728774886138, 0.0246477795129, -0.00612863706807
0.5464179515838623,-5.69819995117, -0.0670376464844, 8.84418093262, -0.0728774886138, 0.0246477795129, -0.00612863706807
0.5473830699920654,-5.69819995117, -0.0670376464844, 8.84418093262, -0.0728774886138, 0.0246477795129, -0.00612863706807
0.5500071048736572,-5.69819995117, -0.0670376464844, 8.84418093262, -0.0728774886138, 0.0246477795129, -0.00612863706807
0.5510249137878418,-5.69819995117, -0.0670376464844, 8.84418093262, -0.0728774886138, 0.0246477795129, -0.00612863706807
0.551995038986206,-5.69819995117, -0.0670376464844, 8.84418093262, -0.0728774886138, 0.0246477795129, -0.00612863706807
0.5531089305877686,-5.69819995117, -0.0670376464844, 8.84418093262, -0.0728774886138, 0.0246477795129, -0.00612863706807
0.5540859699249268,-5.69819995117, -0.0670376464844, 8.84418093262, -0.0728774886138, 0.0246477795129, -0.00612863706807
0.5550510883331299,-5.69819995117, -0.0670376464844, 8.84418093262, -0.0728774886138, 0.0246477795129, -0.00612863706807
0.5559570789337158,-5.69819995117, -0.0670376464844, 8.84418093262, -0.0728774886138, 0.0246477795129, -0.00612863706807
0.5567200183868408,-5.69819995117, -0.0670376464844, 8.84418093262, -0.0728774886138, 0.0246477795129, -0.00612863706807
0.5574901103973389,-5.69819995117, -0.0670376464844, 8.84418093262, -0.0728774886138, 0.0246477795129, -0.00612863706807
0.558229923248291,-5.69819995117, -0.0670376464844, 8.84418093262, -0.0728774886138, 0.0246477795129, -0.00612863706807
0.5593171119689941,-5.69819995117, -0.0670376464844, 8.84418093262, -0.0728774886138, 0.0246477795129, -0.00612863706807
0.5606329441070557,-5.69819995117, -0.0670376464844, 8.84418093262, -0.0728774886138, 0.0246477795129, -0.00612863706807
0.5618100166320801,-5.69819995117, -0.0670376464844, 8.84418093262, -0.0728774886138, 0.0246477795129, -0.00612863706807
0.56268310546875,-5.69819995117, -0.0670376464844, 8.84418093262, -0.0728774886138, 0.0246477795129, -0.00612863706807
0.5634150505065918,-5.69819995117, -0.0670376464844, 8.84418093262, -0.0728774886138, 0.0246477795129, -0.00612863706807
0.564539909362793,-5.69819995117, -0.0670376464844, 8.84418093262, -0.0728774886138, 0.0246477795129, -0.00612863706807
0.5655651092529297,-5.69819995117, -0.0670376464844, 8.84418093262, -0.0728774886138, 0.0246477795129, -0.00612863706807
0.5667569637298584,-5.69819995117, -0.0670376464844, 8.84418093262, -0.0728774886138, 0.0246477795129, -0.00612863706807
0.571721076965332,-5.69819995117, -0.0670376464844, 8.84418093262, -0.0728774886138, 0.0246477795129, -0.00612863706807
0.5733599662780762,-5.69819995117, -0.0670376464844, 8.84418093262, -0.0728774886138, 0.0246477795129, -0.00612863706807
0.5745489597320557,-5.69819995117, -0.0670376464844, 8.84418093262, -0.0728774886138, 0.0246477795129, -0.00612863706807
0.5756559371948242,-5.69819995117, -0.0670376464844, 8.84418093262, -0.0728774886138, 0.0246477795129, -0.00612863706807
0.5769131183624268,-5.69819995117, -0.0670376464844, 8.84418093262, -0.0728774886138, 0.0246477795129, -0.00612863706807
0.5785629749298096,-5.69819995117, -0.0670376464844, 8.84418093262, -0.0728774886138, 0.0246477795129, -0.00612863706807
0.582550048828125,-5.69819995117, -0.0670376464844, 8.84418093262, -0.0728774886138, 0.0246477795129, -0.00612863706807
0.5841779708862305,-5.69819995117, -0.0670376464844, 8.84418093262, -0.0728774886138, 0.0246477795129, -0.00612863706807
0.5855100154876709,-5.69819995117, -0.0670376464844, 8.84418093262, -0.0728774886138, 0.0246477795129, -0.00612863706807
0.5866539478302002,-5.69819995117, -0.0670376464844, 8.84418093262, -0.0728774886138, 0.0246477795129, -0.00612863706807
0.5878069400787354,-5.69819995117, -0.0670376464844, 8.84418093262, -0.0728774886138, 0.0246477795129, -0.00612863706807
0.5890030860900879,-5.69819995117, -0.0670376464844, 8.84418093262, -0.0728774886138, 0.0246477795129, -0.00612863706807
0.590238094329834,-5.69819995117, -0.0670376464844, 8.84418093262, -0.0728774886138, 0.0246477795129, -0.00612863706807
0.5914061069488525,-5.69819995117, -0.0670376464844, 8.84418093262, -0.0728774886138, 0.0246477795129, -0.00612863706807
0.5929689407348633,-5.69819995117, -0.0670376464844, 8.84418093262, -0.0728774886138, 0.0246477795129, -0.00612863706807
0.5940380096435547,-5.69819995117, -0.0670376464844, 8.84418093262, -0.0728774886138, 0.0246477795129, -0.00612863706807
0.5954599380493164,-5.69819995117, -0.0670376464844, 8.84418093262, -0.0728774886138, 0.0246477795129, -0.00612863706807
0.5971319675445557,-5.69819995117, -0.0670376464844, 8.84418093262, -0.0728774886138, 0.0246477795129, -0.00612863706807
0.5997791290283203,-5.69819995117, -0.0670376464844, 8.84418093262, -0.0728774886138, 0.0246477795129, -0.00612863706807
0.603208065032959,-5.69819995117, -0.0670376464844, 8.84418093262, -0.0728774886138, 0.0246477795129, -0.00612863706807
0.6056690216064453,-5.69819995117, -0.0670376464844, 8.84418093262, -0.0728774886138, 0.0246477795129, -0.00612863706807
0.6098871231079102,-5.54975944824, -0.0646434448242, 8.88248815918, -0.0847350690281, 0.022915773385, -0.00879326188028
0.6112089157104492,-5.54975944824, -0.0646434448242, 8.88248815918, -0.0847350690281, 0.022915773385, -0.00879326188028
0.61285400390625,-5.54975944824, -0.0646434448242, 8.88248815918, -0.0847350690281, 0.022915773385, -0.00879326188028
0.61415696144104,-5.54975944824, -0.0646434448242, 8.88248815918, -0.0847350690281, 0.022915773385, -0.00879326188028
0.615354061126709,-5.54975944824, -0.0646434448242, 8.88248815918, -0.0847350690281, 0.022915773385, -0.00879326188028
0.6165990829467773,-5.54975944824, -0.0646434448242, 8.88248815918, -0.0847350690281, 0.022915773385, -0.00879326188028
0.6179430484771729,-5.54975944824, -0.0646434448242, 8.88248815918, -0.0847350690281, 0.022915773385, -0.00879326188028
0.6193900108337402,-5.54975944824, -0.0646434448242, 8.88248815918, -0.0847350690281, 0.022915773385, -0.00879326188028
0.6208391189575195,-5.54975944824, -0.0646434448242, 8.88248815918, -0.0847350690281, 0.022915773385, -0.00879326188028
0.6223640441894531,-5.54975944824, -0.0646434448242, 8.88248815918, -0.0847350690281, 0.022915773385, -0.00879326188028
0.6236300468444824,-5.54975944824, -0.0646434448242, 8.88248815918, -0.0847350690281, 0.022915773385, -0.00879326188028
0.6250450611114502,-5.54975944824, -0.0646434448242, 8.88248815918, -0.0847350690281, 0.022915773385, -0.00879326188028
0.6266219615936279,-5.54975944824, -0.0646434448242, 8.88248815918, -0.0847350690281, 0.022915773385, -0.00879326188028
0.6282041072845459,-5.54975944824, -0.0646434448242, 8.88248815918, -0.0847350690281, 0.022915773385, -0.00879326188028
0.6310789585113525,-5.54975944824, -0.0646434448242, 8.88248815918, -0.0847350690281, 0.022915773385, -0.00879326188028
0.6339690685272217,-5.54975944824, -0.0646434448242, 8.88248815918, -0.0847350690281, 0.022915773385, -0.00879326188028
0.6374130249023438,-5.54975944824, -0.0646434448242, 8.88248815918, -0.0847350690281, 0.022915773385, -0.00879326188028
0.6389670372009277,-5.54975944824, -0.0646434448242, 8.88248815918, -0.0847350690281, 0.022915773385, -0.00879326188028
0.6406760215759277,-5.54975944824, -0.0646434448242, 8.88248815918, -0.0847350690281, 0.022915773385, -0.00879326188028
0.6422231197357178,-5.54975944824, -0.0646434448242, 8.88248815918, -0.0847350690281, 0.022915773385, -0.00879326188028
0.643805980682373,-5.54975944824, -0.0646434448242, 8.88248815918, -0.0847350690281, 0.022915773385, -0.00879326188028
0.6453571319580078,-5.54975944824, -0.0646434448242, 8.88248815918, -0.0847350690281, 0.022915773385, -0.00879326188028
0.6468210220336914,-5.54975944824, -0.0646434448242, 8.88248815918, -0.0847350690281, 0.022915773385, -0.00879326188028
0.6505649089813232,-5.54975944824, -0.0646434448242, 8.88248815918, -0.0847350690281, 0.022915773385, -0.00879326188028
0.652022123336792,-5.54975944824, -0.0646434448242, 8.88248815918, -0.0847350690281, 0.022915773385, -0.00879326188028
0.6534459590911865,-5.54975944824, -0.0646434448242, 8.88248815918, -0.0847350690281, 0.022915773385, -0.00879326188028
0.6548459529876709,-5.54975944824, -0.0646434448242, 8.88248815918, -0.0847350690281, 0.022915773385, -0.00879326188028
0.6561930179595947,-5.54975944824, -0.0646434448242, 8.88248815918, -0.0847350690281, 0.022915773385, -0.00879326188028
0.6575460433959961,-5.54975944824, -0.0646434448242, 8.88248815918, -0.0847350690281, 0.022915773385, -0.00879326188028
0.6591510772705078,-5.54975944824, -0.0646434448242, 8.88248815918, -0.0847350690281, 0.022915773385, -0.00879326188028
0.6609101295471191,-5.54975944824, -0.0646434448242, 8.88248815918, -0.0847350690281, 0.022915773385, -0.00879326188028
0.6640961170196533,-5.54975944824, -0.0646434448242, 8.88248815918, -0.0847350690281, 0.022915773385, -0.00879326188028
0.665816068649292,-5.54975944824, -0.0646434448242, 8.88248815918, -0.0847350690281, 0.022915773385, -0.00879326188028
0.6678969860076904,-5.54975944824, -0.0646434448242, 8.88248815918, -0.0847350690281, 0.022915773385, -0.00879326188028
0.6690969467163086,-5.54975944824, -0.0646434448242, 8.88248815918, -0.0847350690281, 0.022915773385, -0.00879326188028
0.6703329086303711,-5.54975944824, -0.0646434448242, 8.88248815918, -0.0847350690281, 0.022915773385, -0.00879326188028
0.6716909408569336,-5.54975944824, -0.0646434448242, 8.88248815918, -0.0847350690281, 0.022915773385, -0.00879326188028
0.672821044921875,-5.54975944824, -0.0646434448242, 8.88248815918, -0.0847350690281, 0.022915773385, -0.00879326188028
0.6756579875946045,-5.54975944824, -0.0646434448242, 8.88248815918, -0.0847350690281, 0.022915773385, -0.00879326188028
0.6767780780792236,-5.54975944824, -0.0646434448242, 8.88248815918, -0.0847350690281, 0.022915773385, -0.00879326188028
0.6776430606842041,-5.54975944824, -0.0646434448242, 8.88248815918, -0.0847350690281, 0.022915773385, -0.00879326188028
0.6785011291503906,-5.54975944824, -0.0646434448242, 8.88248815918, -0.0847350690281, 0.022915773385, -0.00879326188028
0.6792740821838379,-5.54975944824, -0.0646434448242, 8.88248815918, -0.0847350690281, 0.022915773385, -0.00879326188028
0.680229902267456,-5.54975944824, -0.0646434448242, 8.88248815918, -0.0847350690281, 0.022915773385, -0.00879326188028
0.6815049648284912,-5.54975944824, -0.0646434448242, 8.88248815918, -0.0847350690281, 0.022915773385, -0.00879326188028
0.6829879283905029,-5.54975944824, -0.0646434448242, 8.88248815918, -0.0847350690281, 0.022915773385, -0.00879326188028
0.6842589378356934,-5.54975944824, -0.0646434448242, 8.88248815918, -0.0847350690281, 0.022915773385, -0.00879326188028
0.6855940818786621,-5.54975944824, -0.0646434448242, 8.88248815918, -0.0847350690281, 0.022915773385, -0.00879326188028
0.6869909763336182,-5.54975944824, -0.0646434448242, 8.88248815918, -0.0847350690281, 0.022915773385, -0.00879326188028
0.6883509159088135,-5.54975944824, -0.0646434448242, 8.88248815918, -0.0847350690281, 0.022915773385, -0.00879326188028
0.6900339126586914,-5.54975944824, -0.0646434448242, 8.88248815918, -0.0847350690281, 0.022915773385, -0.00879326188028
0.6935470104217529,-5.54975944824, -0.0646434448242, 8.88248815918, -0.0847350690281, 0.022915773385, -0.00879326188028
0.6961309909820557,-5.54975944824, -0.0646434448242, 8.88248815918, -0.0847350690281, 0.022915773385, -0.00879326188028
0.6982839107513428,-5.54975944824, -0.0646434448242, 8.88248815918, -0.0847350690281, 0.022915773385, -0.00879326188028
0.7006011009216309,-5.54975944824, -0.0646434448242, 8.88248815918, -0.0847350690281, 0.022915773385, -0.00879326188028
0.7021970748901367,-5.54975944824, -0.0646434448242, 8.88248815918, -0.0847350690281, 0.022915773385, -0.00879326188028
0.7036659717559814,-5.54975944824, -0.0646434448242, 8.88248815918, -0.0847350690281, 0.022915773385, -0.00879326188028
0.7050580978393555,-5.54975944824, -0.0646434448242, 8.88248815918, -0.0847350690281, 0.022915773385, -0.00879326188028
0.7081739902496338,-5.64552751465, -0.0622492431641, 8.79629689941, -0.0776738132758, 0.0265130168814, -0.00586217458685
0.7094299793243408,-5.64552751465, -0.0622492431641, 8.79629689941, -0.0776738132758, 0.0265130168814, -0.00586217458685
0.7108049392700195,-5.64552751465, -0.0622492431641, 8.79629689941, -0.0776738132758, 0.0265130168814, -0.00586217458685
0.7125699520111084,-5.64552751465, -0.0622492431641, 8.79629689941, -0.0776738132758, 0.0265130168814, -0.00586217458685
0.7139899730682373,-5.64552751465, -0.0622492431641, 8.79629689941, -0.0776738132758, 0.0265130168814, -0.00586217458685
0.7154080867767334,-5.64552751465, -0.0622492431641, 8.79629689941, -0.0776738132758, 0.0265130168814, -0.00586217458685
0.716850996017456,-5.64552751465, -0.0622492431641, 8.79629689941, -0.0776738132758, 0.0265130168814, -0.00586217458685
0.7186639308929443,-5.64552751465, -0.0622492431641, 8.79629689941, -0.0776738132758, 0.0265130168814, -0.00586217458685
0.7202351093292236,-5.64552751465, -0.0622492431641, 8.79629689941, -0.0776738132758, 0.0265130168814, -0.00586217458685
0.7227699756622314,-5.64552751465, -0.0622492431641, 8.79629689941, -0.0776738132758, 0.0265130168814, -0.00586217458685
0.7266349792480469,-5.64552751465, -0.0622492431641, 8.79629689941, -0.0776738132758, 0.0265130168814, -0.00586217458685
0.7292289733886719,-5.64552751465, -0.0622492431641, 8.79629689941, -0.0776738132758, 0.0265130168814, -0.00586217458685
0.7309589385986328,-5.64552751465, -0.0622492431641, 8.79629689941, -0.0776738132758, 0.0265130168814, -0.00586217458685
0.7323110103607178,-5.64552751465, -0.0622492431641, 8.79629689941, -0.0776738132758, 0.0265130168814, -0.00586217458685
0.7336149215698242,-5.64552751465, -0.0622492431641, 8.79629689941, -0.0776738132758, 0.0265130168814, -0.00586217458685
0.735131025314331,-5.64552751465, -0.0622492431641, 8.79629689941, -0.0776738132758, 0.0265130168814, -0.00586217458685
0.7369251251220703,-5.64552751465, -0.0622492431641, 8.79629689941, -0.0776738132758, 0.0265130168814, -0.00586217458685
0.7382509708404541,-5.64552751465, -0.0622492431641, 8.79629689941, -0.0776738132758, 0.0265130168814, -0.00586217458685
0.7395920753479004,-5.64552751465, -0.0622492431641, 8.79629689941, -0.0776738132758, 0.0265130168814, -0.00586217458685
0.740976095199585,-5.64552751465, -0.0622492431641, 8.79629689941, -0.0776738132758, 0.0265130168814, -0.00586217458685
0.742725133895874,-5.64552751465, -0.0622492431641, 8.79629689941, -0.0776738132758, 0.0265130168814, -0.00586217458685
0.7445271015167236,-5.64552751465, -0.0622492431641, 8.79629689941, -0.0776738132758, 0.0265130168814, -0.00586217458685
0.7462790012359619,-5.64552751465, -0.0622492431641, 8.79629689941, -0.0776738132758, 0.0265130168814, -0.00586217458685
0.7477600574493408,-5.64552751465, -0.0622492431641, 8.79629689941, -0.0776738132758, 0.0265130168814, -0.00586217458685
0.7520489692687988,-5.64552751465, -0.0622492431641, 8.79629689941, -0.0776738132758, 0.0265130168814, -0.00586217458685
0.7568750381469727,-5.64552751465, -0.0622492431641, 8.79629689941, -0.0776738132758, 0.0265130168814, -0.00586217458685
0.7592830657958984,-5.64552751465, -0.0622492431641, 8.79629689941, -0.0776738132758, 0.0265130168814, -0.00586217458685
0.761444091796875,-5.64552751465, -0.0622492431641, 8.79629689941, -0.0776738132758, 0.0265130168814, -0.00586217458685
0.7631840705871582,-5.64552751465, -0.0622492431641, 8.79629689941, -0.0776738132758, 0.0265130168814, -0.00586217458685
0.7644479274749756,-5.64552751465, -0.0622492431641, 8.79629689941, -0.0776738132758, 0.0265130168814, -0.00586217458685
0.7657470703125,-5.64552751465, -0.0622492431641, 8.79629689941, -0.0776738132758, 0.0265130168814, -0.00586217458685
0.7670280933380127,-5.64552751465, -0.0622492431641, 8.79629689941, -0.0776738132758, 0.0265130168814, -0.00586217458685
0.7684140205383301,-5.64552751465, -0.0622492431641, 8.79629689941, -0.0776738132758, 0.0265130168814, -0.00586217458685
0.7697620391845703,-5.64552751465, -0.0622492431641, 8.79629689941, -0.0776738132758, 0.0265130168814, -0.00586217458685
0.7716701030731201,-5.64552751465, -0.0622492431641, 8.79629689941, -0.0776738132758, 0.0265130168814, -0.00586217458685
0.7731599807739258,-5.64552751465, -0.0622492431641, 8.79629689941, -0.0776738132758, 0.0265130168814, -0.00586217458685
0.7762861251831055,-5.64552751465, -0.0622492431641, 8.79629689941, -0.0776738132758, 0.0265130168814, -0.00586217458685
0.7775321006774902,-5.64552751465, -0.0622492431641, 8.79629689941, -0.0776738132758, 0.0265130168814, -0.00586217458685
0.7786469459533691,-5.64552751465, -0.0622492431641, 8.79629689941, -0.0776738132758, 0.0265130168814, -0.00586217458685
0.7799069881439209,-5.64552751465, -0.0622492431641, 8.79629689941, -0.0776738132758, 0.0265130168814, -0.00586217458685
0.7810571193695068,-5.64552751465, -0.0622492431641, 8.79629689941, -0.0776738132758, 0.0265130168814, -0.00586217458685
0.7826869487762451,-5.64552751465, -0.0622492431641, 8.79629689941, -0.0776738132758, 0.0265130168814, -0.00586217458685
0.7853260040283203,-5.64552751465, -0.0622492431641, 8.79629689941, -0.0776738132758, 0.0265130168814, -0.00586217458685
0.7872259616851807,-5.64552751465, -0.0622492431641, 8.79629689941, -0.0776738132758, 0.0265130168814, -0.00586217458685
0.7893600463867188,-5.64552751465, -0.0622492431641, 8.79629689941, -0.0776738132758, 0.0265130168814, -0.00586217458685
0.7906661033630371,-5.64552751465, -0.0622492431641, 8.79629689941, -0.0776738132758, 0.0265130168814, -0.00586217458685
0.7917239665985107,-5.64552751465, -0.0622492431641, 8.79629689941, -0.0776738132758, 0.0265130168814, -0.00586217458685
0.7930469512939453,-5.64552751465, -0.0622492431641, 8.79629689941, -0.0776738132758, 0.0265130168814, -0.00586217458685
0.7944889068603516,-5.64552751465, -0.0622492431641, 8.79629689941, -0.0776738132758, 0.0265130168814, -0.00586217458685
0.7958359718322754,-5.64552751465, -0.0622492431641, 8.79629689941, -0.0776738132758, 0.0265130168814, -0.00586217458685
0.7971351146697998,-5.64552751465, -0.0622492431641, 8.79629689941, -0.0776738132758, 0.0265130168814, -0.00586217458685
0.7984139919281006,-5.64552751465, -0.0622492431641, 8.79629689941, -0.0776738132758, 0.0265130168814, -0.00586217458685
0.8000319004058838,-5.64552751465, -0.0622492431641, 8.79629689941, -0.0776738132758, 0.0265130168814, -0.00586217458685
0.8016390800476074,-5.64552751465, -0.0622492431641, 8.79629689941, -0.0776738132758, 0.0265130168814, -0.00586217458685
0.8032360076904297,-5.64552751465, -0.0622492431641, 8.79629689941, -0.0776738132758, 0.0265130168814, -0.00586217458685
0.8045151233673096,-5.64552751465, -0.0622492431641, 8.79629689941, -0.0776738132758, 0.0265130168814, -0.00586217458685
0.8077120780944824,-5.70059415283, -0.0598550415039, 8.76756647949, -0.0772741195539, 0.0230490046256, -0.00719448699295
0.8094110488891602,-5.70059415283, -0.0598550415039, 8.76756647949, -0.0772741195539, 0.0230490046256, -0.00719448699295
0.8108220100402832,-5.70059415283, -0.0598550415039, 8.76756647949, -0.0772741195539, 0.0230490046256, -0.00719448699295
0.8126599788665771,-5.70059415283, -0.0598550415039, 8.76756647949, -0.0772741195539, 0.0230490046256, -0.00719448699295
0.8142170906066895,-5.70059415283, -0.0598550415039, 8.76756647949, -0.0772741195539, 0.0230490046256, -0.00719448699295
0.8159189224243164,-5.70059415283, -0.0598550415039, 8.76756647949, -0.0772741195539, 0.0230490046256, -0.00719448699295
0.8197360038757324,-5.70059415283, -0.0598550415039, 8.76756647949, -0.0772741195539, 0.0230490046256, -0.00719448699295
0.8228240013122559,-5.70059415283, -0.0598550415039, 8.76756647949, -0.0772741195539, 0.0230490046256, -0.00719448699295
0.8256881237030029,-5.70059415283, -0.0598550415039, 8.76756647949, -0.0772741195539, 0.0230490046256, -0.00719448699295
0.8272519111633301,-5.70059415283, -0.0598550415039, 8.76756647949, -0.0772741195539, 0.0230490046256, -0.00719448699295
0.8287029266357422,-5.70059415283, -0.0598550415039, 8.76756647949, -0.0772741195539, 0.0230490046256, -0.00719448699295
0.8300518989562988,-5.70059415283, -0.0598550415039, 8.76756647949, -0.0772741195539, 0.0230490046256, -0.00719448699295
0.8312849998474121,-5.70059415283, -0.0598550415039, 8.76756647949, -0.0772741195539, 0.0230490046256, -0.00719448699295
0.83284592628479,-5.70059415283, -0.0598550415039, 8.76756647949, -0.0772741195539, 0.0230490046256, -0.00719448699295
0.8341679573059082,-5.70059415283, -0.0598550415039, 8.76756647949, -0.0772741195539, 0.0230490046256, -0.00719448699295
0.835582971572876,-5.70059415283, -0.0598550415039, 8.76756647949, -0.0772741195539, 0.0230490046256, -0.00719448699295
0.8372230529785156,-5.70059415283, -0.0598550415039, 8.76756647949, -0.0772741195539, 0.0230490046256, -0.00719448699295
0.8386900424957275,-5.70059415283, -0.0598550415039, 8.76756647949, -0.0772741195539, 0.0230490046256, -0.00719448699295
0.8401720523834229,-5.70059415283, -0.0598550415039, 8.76756647949, -0.0772741195539, 0.0230490046256, -0.00719448699295
0.8418281078338623,-5.70059415283, -0.0598550415039, 8.76756647949, -0.0772741195539, 0.0230490046256, -0.00719448699295
0.8436529636383057,-5.70059415283, -0.0598550415039, 8.76756647949, -0.0772741195539, 0.0230490046256, -0.00719448699295
0.8456060886383057,-5.70059415283, -0.0598550415039, 8.76756647949, -0.0772741195539, 0.0230490046256, -0.00719448699295
0.8513410091400146,-5.70059415283, -0.0598550415039, 8.76756647949, -0.0772741195539, 0.0230490046256, -0.00719448699295
0.8547189235687256,-5.70059415283, -0.0598550415039, 8.76756647949, -0.0772741195539, 0.0230490046256, -0.00719448699295
0.8576240539550781,-5.70059415283, -0.0598550415039, 8.76756647949, -0.0772741195539, 0.0230490046256, -0.00719448699295
0.8590888977050781,-5.70059415283, -0.0598550415039, 8.76756647949, -0.0772741195539, 0.0230490046256, -0.00719448699295
0.860846996307373,-5.70059415283, -0.0598550415039, 8.76756647949, -0.0772741195539, 0.0230490046256, -0.00719448699295
0.8624649047851562,-5.70059415283, -0.0598550415039, 8.76756647949, -0.0772741195539, 0.0230490046256, -0.00719448699295
0.8640549182891846,-5.70059415283, -0.0598550415039, 8.76756647949, -0.0772741195539, 0.0230490046256, -0.00719448699295
0.865401029586792,-5.70059415283, -0.0598550415039, 8.76756647949, -0.0772741195539, 0.0230490046256, -0.00719448699295
0.8667469024658203,-5.70059415283, -0.0598550415039, 8.76756647949, -0.0772741195539, 0.0230490046256, -0.00719448699295
0.8681991100311279,-5.70059415283, -0.0598550415039, 8.76756647949, -0.0772741195539, 0.0230490046256, -0.00719448699295
0.8696250915527344,-5.70059415283, -0.0598550415039, 8.76756647949, -0.0772741195539, 0.0230490046256, -0.00719448699295
0.8717160224914551,-5.70059415283, -0.0598550415039, 8.76756647949, -0.0772741195539, 0.0230490046256, -0.00719448699295
0.8736279010772705,-5.70059415283, -0.0598550415039, 8.76756647949, -0.0772741195539, 0.0230490046256, -0.00719448699295
0.8781800270080566,-5.70059415283, -0.0598550415039, 8.76756647949, -0.0772741195539, 0.0230490046256, -0.00719448699295
0.8806030750274658,-5.70059415283, -0.0598550415039, 8.76756647949, -0.0772741195539, 0.0230490046256, -0.00719448699295
0.882775068283081,-5.70059415283, -0.0598550415039, 8.76756647949, -0.0772741195539, 0.0230490046256, -0.00719448699295
0.8847000598907471,-5.70059415283, -0.0598550415039, 8.76756647949, -0.0772741195539, 0.0230490046256, -0.00719448699295
0.8867099285125732,-5.70059415283, -0.0598550415039, 8.76756647949, -0.0772741195539, 0.0230490046256, -0.00719448699295
0.8879830837249756,-5.70059415283, -0.0598550415039, 8.76756647949, -0.0772741195539, 0.0230490046256, -0.00719448699295
0.8890259265899658,-5.70059415283, -0.0598550415039, 8.76756647949, -0.0772741195539, 0.0230490046256, -0.00719448699295
0.890002965927124,-5.70059415283, -0.0598550415039, 8.76756647949, -0.0772741195539, 0.0230490046256, -0.00719448699295
0.8908679485321045,-5.70059415283, -0.0598550415039, 8.76756647949, -0.0772741195539, 0.0230490046256, -0.00719448699295
0.8920910358428955,-5.70059415283, -0.0598550415039, 8.76756647949, -0.0772741195539, 0.0230490046256, -0.00719448699295
0.8931629657745361,-5.70059415283, -0.0598550415039, 8.76756647949, -0.0772741195539, 0.0230490046256, -0.00719448699295
0.894212007522583,-5.70059415283, -0.0598550415039, 8.76756647949, -0.0772741195539, 0.0230490046256, -0.00719448699295
0.8956940174102783,-5.70059415283, -0.0598550415039, 8.76756647949, -0.0772741195539, 0.0230490046256, -0.00719448699295
0.8970580101013184,-5.70059415283, -0.0598550415039, 8.76756647949, -0.0772741195539, 0.0230490046256, -0.00719448699295
0.8983800411224365,-5.70059415283, -0.0598550415039, 8.76756647949, -0.0772741195539, 0.0230490046256, -0.00719448699295
0.8997259140014648,-5.70059415283, -0.0598550415039, 8.76756647949, -0.0772741195539, 0.0230490046256, -0.00719448699295
0.9012570381164551,-5.70059415283, -0.0598550415039, 8.76756647949, -0.0772741195539, 0.0230490046256, -0.00719448699295
0.9031131267547607,-5.70059415283, -0.0598550415039, 8.76756647949, -0.0772741195539, 0.0230490046256, -0.00719448699295
0.9045870304107666,-5.70059415283, -0.0598550415039, 8.76756647949, -0.0772741195539, 0.0230490046256, -0.00719448699295
0.9070611000061035,-5.70059415283, -0.0598550415039, 8.76756647949, -0.0772741195539, 0.0230490046256, -0.00719448699295
0.9102110862731934,-5.70059415283, -0.0598550415039, 8.76756647949, -0.0772741195539, 0.0230490046256, -0.00719448699295
0.9161510467529297,-5.71256516113, -0.031124621582, 8.85375773926, -0.0818039817347, 0.0215834609789, -0.00892649312089
0.9185159206390381,-5.71256516113, -0.031124621582, 8.85375773926, -0.0818039817347, 0.0215834609789, -0.00892649312089
0.9201309680938721,-5.71256516113, -0.031124621582, 8.85375773926, -0.0818039817347, 0.0215834609789, -0.00892649312089
0.9215021133422852,-5.71256516113, -0.031124621582, 8.85375773926, -0.0818039817347, 0.0215834609789, -0.00892649312089
0.9232361316680908,-5.71256516113, -0.031124621582, 8.85375773926, -0.0818039817347, 0.0215834609789, -0.00892649312089
0.9246771335601807,-5.71256516113, -0.031124621582, 8.85375773926, -0.0818039817347, 0.0215834609789, -0.00892649312089
0.9262700080871582,-5.71256516113, -0.031124621582, 8.85375773926, -0.0818039817347, 0.0215834609789, -0.00892649312089
0.9276180267333984,-5.71256516113, -0.031124621582, 8.85375773926, -0.0818039817347, 0.0215834609789, -0.00892649312089
0.9289870262145996,-5.71256516113, -0.031124621582, 8.85375773926, -0.0818039817347, 0.0215834609789, -0.00892649312089
0.9303669929504395,-5.71256516113, -0.031124621582, 8.85375773926, -0.0818039817347, 0.0215834609789, -0.00892649312089
0.9316821098327637,-5.71256516113, -0.031124621582, 8.85375773926, -0.0818039817347, 0.0215834609789, -0.00892649312089
0.9330289363861084,-5.71256516113, -0.031124621582, 8.85375773926, -0.0818039817347, 0.0215834609789, -0.00892649312089
0.9346699714660645,-5.71256516113, -0.031124621582, 8.85375773926, -0.0818039817347, 0.0215834609789, -0.00892649312089
0.9368829727172852,-5.71256516113, -0.031124621582, 8.85375773926, -0.0818039817347, 0.0215834609789, -0.00892649312089
0.9409959316253662,-5.71256516113, -0.031124621582, 8.85375773926, -0.0818039817347, 0.0215834609789, -0.00892649312089
0.9440939426422119,-5.71256516113, -0.031124621582, 8.85375773926, -0.0818039817347, 0.0215834609789, -0.00892649312089
0.9470291137695312,-5.71256516113, -0.031124621582, 8.85375773926, -0.0818039817347, 0.0215834609789, -0.00892649312089
0.9487020969390869,-5.71256516113, -0.031124621582, 8.85375773926, -0.0818039817347, 0.0215834609789, -0.00892649312089
0.9503281116485596,-5.71256516113, -0.031124621582, 8.85375773926, -0.0818039817347, 0.0215834609789, -0.00892649312089
0.9520540237426758,-5.71256516113, -0.031124621582, 8.85375773926, -0.0818039817347, 0.0215834609789, -0.00892649312089
0.9536769390106201,-5.71256516113, -0.031124621582, 8.85375773926, -0.0818039817347, 0.0215834609789, -0.00892649312089
0.9576549530029297,-5.71256516113, -0.031124621582, 8.85375773926, -0.0818039817347, 0.0215834609789, -0.00892649312089
0.959252119064331,-5.71256516113, -0.031124621582, 8.85375773926, -0.0818039817347, 0.0215834609789, -0.00892649312089
0.9607009887695312,-5.71256516113, -0.031124621582, 8.85375773926, -0.0818039817347, 0.0215834609789, -0.00892649312089
0.9624490737915039,-5.71256516113, -0.031124621582, 8.85375773926, -0.0818039817347, 0.0215834609789, -0.00892649312089
0.963792085647583,-5.71256516113, -0.031124621582, 8.85375773926, -0.0818039817347, 0.0215834609789, -0.00892649312089
0.9653799533843994,-5.71256516113, -0.031124621582, 8.85375773926, -0.0818039817347, 0.0215834609789, -0.00892649312089
0.9677340984344482,-5.71256516113, -0.031124621582, 8.85375773926, -0.0818039817347, 0.0215834609789, -0.00892649312089
0.9722480773925781,-5.71256516113, -0.031124621582, 8.85375773926, -0.0818039817347, 0.0215834609789, -0.00892649312089
0.9750161170959473,-5.71256516113, -0.031124621582, 8.85375773926, -0.0818039817347, 0.0215834609789, -0.00892649312089
0.9767510890960693,-5.71256516113, -0.031124621582, 8.85375773926, -0.0818039817347, 0.0215834609789, -0.00892649312089
0.9805300235748291,-5.71256516113, -0.031124621582, 8.85375773926, -0.0818039817347, 0.0215834609789, -0.00892649312089
0.9821629524230957,-5.71256516113, -0.031124621582, 8.85375773926, -0.0818039817347, 0.0215834609789, -0.00892649312089
0.9838531017303467,-5.71256516113, -0.031124621582, 8.85375773926, -0.0818039817347, 0.0215834609789, -0.00892649312089
0.9854130744934082,-5.71256516113, -0.031124621582, 8.85375773926, -0.0818039817347, 0.0215834609789, -0.00892649312089
0.9866750240325928,-5.71256516113, -0.031124621582, 8.85375773926, -0.0818039817347, 0.0215834609789, -0.00892649312089
0.9881560802459717,-5.71256516113, -0.031124621582, 8.85375773926, -0.0818039817347, 0.0215834609789, -0.00892649312089
0.9896330833435059,-5.71256516113, -0.031124621582, 8.85375773926, -0.0818039817347, 0.0215834609789, -0.00892649312089
0.9910070896148682,-5.71256516113, -0.031124621582, 8.85375773926, -0.0818039817347, 0.0215834609789, -0.00892649312089
0.9926259517669678,-5.71256516113, -0.031124621582, 8.85375773926, -0.0818039817347, 0.0215834609789, -0.00892649312089
0.9938831329345703,-5.71256516113, -0.031124621582, 8.85375773926, -0.0818039817347, 0.0215834609789, -0.00892649312089
0.9957981109619141,-5.71256516113, -0.031124621582, 8.85375773926, -0.0818039817347, 0.0215834609789, -0.00892649312089
0.9974551200866699,-5.71256516113, -0.031124621582, 8.85375773926, -0.0818039817347, 0.0215834609789, -0.00892649312089
0.9993090629577637,-5.71256516113, -0.031124621582, 8.85375773926, -0.0818039817347, 0.0215834609789, -0.00892649312089
1.0035009384155273,-5.71256516113, -0.031124621582, 8.85375773926, -0.0818039817347, 0.0215834609789, -0.00892649312089
1.0060219764709473,-5.71256516113, -0.031124621582, 8.85375773926, -0.0818039817347, 0.0215834609789, -0.00892649312089
1.0096039772033691,-5.77242020264, -0.0167594116211, 8.79629689941, -0.0770076570727, 0.0215834609789, -0.00706125575234
1.0106680393218994,-5.77242020264, -0.0167594116211, 8.79629689941, -0.0770076570727, 0.0215834609789, -0.00706125575234
1.0118401050567627,-5.77242020264, -0.0167594116211, 8.79629689941, -0.0770076570727, 0.0215834609789, -0.00706125575234
1.0130419731140137,-5.77242020264, -0.0167594116211, 8.79629689941, -0.0770076570727, 0.0215834609789, -0.00706125575234
1.0139961242675781,-5.77242020264, -0.0167594116211, 8.79629689941, -0.0770076570727, 0.0215834609789, -0.00706125575234
1.0148899555206299,-5.77242020264, -0.0167594116211, 8.79629689941, -0.0770076570727, 0.0215834609789, -0.00706125575234
1.0163891315460205,-5.77242020264, -0.0167594116211, 8.79629689941, -0.0770076570727, 0.0215834609789, -0.00706125575234
1.0180180072784424,-5.77242020264, -0.0167594116211, 8.79629689941, -0.0770076570727, 0.0215834609789, -0.00706125575234
1.0196080207824707,-5.77242020264, -0.0167594116211, 8.79629689941, -0.0770076570727, 0.0215834609789, -0.00706125575234
1.0211870670318604,-5.77242020264, -0.0167594116211, 8.79629689941, -0.0770076570727, 0.0215834609789, -0.00706125575234
1.022831916809082,-5.77242020264, -0.0167594116211, 8.79629689941, -0.0770076570727, 0.0215834609789, -0.00706125575234
1.0243289470672607,-5.77242020264, -0.0167594116211, 8.79629689941, -0.0770076570727, 0.0215834609789, -0.00706125575234
1.0261249542236328,-5.77242020264, -0.0167594116211, 8.79629689941, -0.0770076570727, 0.0215834609789, -0.00706125575234
1.0281260013580322,-5.77242020264, -0.0167594116211, 8.79629689941, -0.0770076570727, 0.0215834609789, -0.00706125575234
1.031877040863037,-5.77242020264, -0.0167594116211, 8.79629689941, -0.0770076570727, 0.0215834609789, -0.00706125575234
1.0346899032592773,-5.77242020264, -0.0167594116211, 8.79629689941, -0.0770076570727, 0.0215834609789, -0.00706125575234
1.0369889736175537,-5.77242020264, -0.0167594116211, 8.79629689941, -0.0770076570727, 0.0215834609789, -0.00706125575234
1.0384399890899658,-5.77242020264, -0.0167594116211, 8.79629689941, -0.0770076570727, 0.0215834609789, -0.00706125575234
1.0401980876922607,-5.77242020264, -0.0167594116211, 8.79629689941, -0.0770076570727, 0.0215834609789, -0.00706125575234
1.0419960021972656,-5.77242020264, -0.0167594116211, 8.79629689941, -0.0770076570727, 0.0215834609789, -0.00706125575234
1.0436511039733887,-5.77242020264, -0.0167594116211, 8.79629689941, -0.0770076570727, 0.0215834609789, -0.00706125575234
1.045262098312378,-5.77242020264, -0.0167594116211, 8.79629689941, -0.0770076570727, 0.0215834609789, -0.00706125575234
1.046734094619751,-5.77242020264, -0.0167594116211, 8.79629689941, -0.0770076570727, 0.0215834609789, -0.00706125575234
1.0512080192565918,-5.77242020264, -0.0167594116211, 8.79629689941, -0.0770076570727, 0.0215834609789, -0.00706125575234
1.0531339645385742,-5.77242020264, -0.0167594116211, 8.79629689941, -0.0770076570727, 0.0215834609789, -0.00706125575234
1.054724931716919,-5.77242020264, -0.0167594116211, 8.79629689941, -0.0770076570727, 0.0215834609789, -0.00706125575234
1.056509017944336,-5.77242020264, -0.0167594116211, 8.79629689941, -0.0770076570727, 0.0215834609789, -0.00706125575234
1.0594749450683594,-5.77242020264, -0.0167594116211, 8.79629689941, -0.0770076570727, 0.0215834609789, -0.00706125575234
1.0629229545593262,-5.77242020264, -0.0167594116211, 8.79629689941, -0.0770076570727, 0.0215834609789, -0.00706125575234
1.0654830932617188,-5.77242020264, -0.0167594116211, 8.79629689941, -0.0770076570727, 0.0215834609789, -0.00706125575234
1.0672640800476074,-5.77242020264, -0.0167594116211, 8.79629689941, -0.0770076570727, 0.0215834609789, -0.00706125575234
1.0691189765930176,-5.77242020264, -0.0167594116211, 8.79629689941, -0.0770076570727, 0.0215834609789, -0.00706125575234
1.0707130432128906,-5.77242020264, -0.0167594116211, 8.79629689941, -0.0770076570727, 0.0215834609789, -0.00706125575234
1.0727150440216064,-5.77242020264, -0.0167594116211, 8.79629689941, -0.0770076570727, 0.0215834609789, -0.00706125575234
1.0770390033721924,-5.77242020264, -0.0167594116211, 8.79629689941, -0.0770076570727, 0.0215834609789, -0.00706125575234
1.0785069465637207,-5.77242020264, -0.0167594116211, 8.79629689941, -0.0770076570727, 0.0215834609789, -0.00706125575234
1.0798759460449219,-5.77242020264, -0.0167594116211, 8.79629689941, -0.0770076570727, 0.0215834609789, -0.00706125575234
1.0813031196594238,-5.77242020264, -0.0167594116211, 8.79629689941, -0.0770076570727, 0.0215834609789, -0.00706125575234
1.083003044128418,-5.77242020264, -0.0167594116211, 8.79629689941, -0.0770076570727, 0.0215834609789, -0.00706125575234
1.0845410823822021,-5.77242020264, -0.0167594116211, 8.79629689941, -0.0770076570727, 0.0215834609789, -0.00706125575234
1.0866360664367676,-5.77242020264, -0.0167594116211, 8.79629689941, -0.0770076570727, 0.0215834609789, -0.00706125575234
1.0887250900268555,-5.77242020264, -0.0167594116211, 8.79629689941, -0.0770076570727, 0.0215834609789, -0.00706125575234
1.0940680503845215,-5.77242020264, -0.0167594116211, 8.79629689941, -0.0770076570727, 0.0215834609789, -0.00706125575234
1.096653938293457,-5.77242020264, -0.0167594116211, 8.79629689941, -0.0770076570727, 0.0215834609789, -0.00706125575234
1.098149061203003,-5.77242020264, -0.0167594116211, 8.79629689941, -0.0770076570727, 0.0215834609789, -0.00706125575234
1.0996780395507812,-5.77242020264, -0.0167594116211, 8.79629689941, -0.0770076570727, 0.0215834609789, -0.00706125575234
1.1014981269836426,-5.77242020264, -0.0167594116211, 8.79629689941, -0.0770076570727, 0.0215834609789, -0.00706125575234
1.1032230854034424,-5.77242020264, -0.0167594116211, 8.79629689941, -0.0770076570727, 0.0215834609789, -0.00706125575234
1.104672908782959,-5.77242020264, -0.0167594116211, 8.79629689941, -0.0770076570727, 0.0215834609789, -0.00706125575234
1.1084949970245361,-5.66228692627, -0.0790086547852, 8.75798967285, -0.0800719756068, 0.0231822358662, -0.00679479327112
1.1099469661712646,-5.66228692627, -0.0790086547852, 8.75798967285, -0.0800719756068, 0.0231822358662, -0.00679479327112
1.111678123474121,-5.66228692627, -0.0790086547852, 8.75798967285, -0.0800719756068, 0.0231822358662, -0.00679479327112
1.1132869720458984,-5.66228692627, -0.0790086547852, 8.75798967285, -0.0800719756068, 0.0231822358662, -0.00679479327112
1.1147611141204834,-5.66228692627, -0.0790086547852, 8.75798967285, -0.0800719756068, 0.0231822358662, -0.00679479327112
1.1161789894104004,-5.66228692627, -0.0790086547852, 8.75798967285, -0.0800719756068, 0.0231822358662, -0.00679479327112
1.117872953414917,-5.66228692627, -0.0790086547852, 8.75798967285, -0.0800719756068, 0.0231822358662, -0.00679479327112
1.1207859516143799,-5.66228692627, -0.0790086547852, 8.75798967285, -0.0800719756068, 0.0231822358662, -0.00679479327112
1.1236889362335205,-5.66228692627, -0.0790086547852, 8.75798967285, -0.0800719756068, 0.0231822358662, -0.00679479327112
1.1262950897216797,-5.66228692627, -0.0790086547852, 8.75798967285, -0.0800719756068, 0.0231822358662, -0.00679479327112
1.1277539730072021,-5.66228692627, -0.0790086547852, 8.75798967285, -0.0800719756068, 0.0231822358662, -0.00679479327112
1.128788948059082,-5.66228692627, -0.0790086547852, 8.75798967285, -0.0800719756068, 0.0231822358662, -0.00679479327112
1.1298820972442627,-5.66228692627, -0.0790086547852, 8.75798967285, -0.0800719756068, 0.0231822358662, -0.00679479327112
1.1308770179748535,-5.66228692627, -0.0790086547852, 8.75798967285, -0.0800719756068, 0.0231822358662, -0.00679479327112
1.1319410800933838,-5.66228692627, -0.0790086547852, 8.75798967285, -0.0800719756068, 0.0231822358662, -0.00679479327112
1.133220911026001,-5.66228692627, -0.0790086547852, 8.75798967285, -0.0800719756068, 0.0231822358662, -0.00679479327112
1.1349029541015625,-5.66228692627, -0.0790086547852, 8.75798967285, -0.0800719756068, 0.0231822358662, -0.00679479327112
1.136552095413208,-5.66228692627, -0.0790086547852, 8.75798967285, -0.0800719756068, 0.0231822358662, -0.00679479327112
1.1379880905151367,-5.66228692627, -0.0790086547852, 8.75798967285, -0.0800719756068, 0.0231822358662, -0.00679479327112
1.1397109031677246,-5.66228692627, -0.0790086547852, 8.75798967285, -0.0800719756068, 0.0231822358662, -0.00679479327112
1.1414709091186523,-5.66228692627, -0.0790086547852, 8.75798967285, -0.0800719756068, 0.0231822358662, -0.00679479327112
1.1435060501098633,-5.66228692627, -0.0790086547852, 8.75798967285, -0.0800719756068, 0.0231822358662, -0.00679479327112
1.14503812789917,-5.66228692627, -0.0790086547852, 8.75798967285, -0.0800719756068, 0.0231822358662, -0.00679479327112
1.146812915802002,-5.66228692627, -0.0790086547852, 8.75798967285, -0.0800719756068, 0.0231822358662, -0.00679479327112
1.1531989574432373,-5.66228692627, -0.0790086547852, 8.75798967285, -0.0800719756068, 0.0231822358662, -0.00679479327112
1.1560781002044678,-5.66228692627, -0.0790086547852, 8.75798967285, -0.0800719756068, 0.0231822358662, -0.00679479327112
1.1582069396972656,-5.66228692627, -0.0790086547852, 8.75798967285, -0.0800719756068, 0.0231822358662, -0.00679479327112
1.1597750186920166,-5.66228692627, -0.0790086547852, 8.75798967285, -0.0800719756068, 0.0231822358662, -0.00679479327112
1.161242961883545,-5.66228692627, -0.0790086547852, 8.75798967285, -0.0800719756068, 0.0231822358662, -0.00679479327112
1.1630089282989502,-5.66228692627, -0.0790086547852, 8.75798967285, -0.0800719756068, 0.0231822358662, -0.00679479327112
1.1642820835113525,-5.66228692627, -0.0790086547852, 8.75798967285, -0.0800719756068, 0.0231822358662, -0.00679479327112
1.1656320095062256,-5.66228692627, -0.0790086547852, 8.75798967285, -0.0800719756068, 0.0231822358662, -0.00679479327112
1.1670210361480713,-5.66228692627, -0.0790086547852, 8.75798967285, -0.0800719756068, 0.0231822358662, -0.00679479327112
1.16851806640625,-5.66228692627, -0.0790086547852, 8.75798967285, -0.0800719756068, 0.0231822358662, -0.00679479327112
1.1699910163879395,-5.66228692627, -0.0790086547852, 8.75798967285, -0.0800719756068, 0.0231822358662, -0.00679479327112
1.171950101852417,-5.66228692627, -0.0790086547852, 8.75798967285, -0.0800719756068, 0.0231822358662, -0.00679479327112
1.176537036895752,-5.66228692627, -0.0790086547852, 8.75798967285, -0.0800719756068, 0.0231822358662, -0.00679479327112
1.1781799793243408,-5.66228692627, -0.0790086547852, 8.75798967285, -0.0800719756068, 0.0231822358662, -0.00679479327112
1.1798160076141357,-5.66228692627, -0.0790086547852, 8.75798967285, -0.0800719756068, 0.0231822358662, -0.00679479327112
1.1827549934387207,-5.66228692627, -0.0790086547852, 8.75798967285, -0.0800719756068, 0.0231822358662, -0.00679479327112
1.1860311031341553,-5.66228692627, -0.0790086547852, 8.75798967285, -0.0800719756068, 0.0231822358662, -0.00679479327112
1.1887319087982178,-5.66228692627, -0.0790086547852, 8.75798967285, -0.0800719756068, 0.0231822358662, -0.00679479327112
1.1904010772705078,-5.66228692627, -0.0790086547852, 8.75798967285, -0.0800719756068, 0.0231822358662, -0.00679479327112
1.1920580863952637,-5.66228692627, -0.0790086547852, 8.75798967285, -0.0800719756068, 0.0231822358662, -0.00679479327112
1.1935970783233643,-5.66228692627, -0.0790086547852, 8.75798967285, -0.0800719756068, 0.0231822358662, -0.00679479327112
1.1950430870056152,-5.66228692627, -0.0790086547852, 8.75798967285, -0.0800719756068, 0.0231822358662, -0.00679479327112
1.1966280937194824,-5.66228692627, -0.0790086547852, 8.75798967285, -0.0800719756068, 0.0231822358662, -0.00679479327112
1.197962999343872,-5.66228692627, -0.0790086547852, 8.75798967285, -0.0800719756068, 0.0231822358662, -0.00679479327112
1.200016975402832,-5.66228692627, -0.0790086547852, 8.75798967285, -0.0800719756068, 0.0231822358662, -0.00679479327112
1.202091932296753,-5.66228692627, -0.0790086547852, 8.75798967285, -0.0800719756068, 0.0231822358662, -0.00679479327112
1.2038829326629639,-5.66228692627, -0.0790086547852, 8.75798967285, -0.0800719756068, 0.0231822358662, -0.00679479327112
1.2055959701538086,-5.66228692627, -0.0790086547852, 8.75798967285, -0.0800719756068, 0.0231822358662, -0.00679479327112
1.2109599113464355,-5.68622894287, -0.0383072265625, 8.71968244629, -0.0780735069976, 0.023581929588, -0.00772741195539
1.2147760391235352,-5.68622894287, -0.0383072265625, 8.71968244629, -0.0780735069976, 0.023581929588, -0.00772741195539
1.217207908630371,-5.68622894287, -0.0383072265625, 8.71968244629, -0.0780735069976, 0.023581929588, -0.00772741195539
1.2197189331054688,-5.68622894287, -0.0383072265625, 8.71968244629, -0.0780735069976, 0.023581929588, -0.00772741195539
1.221182107925415,-5.68622894287, -0.0383072265625, 8.71968244629, -0.0780735069976, 0.023581929588, -0.00772741195539
1.2229690551757812,-5.68622894287, -0.0383072265625, 8.71968244629, -0.0780735069976, 0.023581929588, -0.00772741195539
1.2244949340820312,-5.68622894287, -0.0383072265625, 8.71968244629, -0.0780735069976, 0.023581929588, -0.00772741195539
1.2262990474700928,-5.68622894287, -0.0383072265625, 8.71968244629, -0.0780735069976, 0.023581929588, -0.00772741195539
1.227855920791626,-5.68622894287, -0.0383072265625, 8.71968244629, -0.0780735069976, 0.023581929588, -0.00772741195539
1.2295889854431152,-5.68622894287, -0.0383072265625, 8.71968244629, -0.0780735069976, 0.023581929588, -0.00772741195539
1.2308769226074219,-5.68622894287, -0.0383072265625, 8.71968244629, -0.0780735069976, 0.023581929588, -0.00772741195539
1.2319400310516357,-5.68622894287, -0.0383072265625, 8.71968244629, -0.0780735069976, 0.023581929588, -0.00772741195539
1.2330150604248047,-5.68622894287, -0.0383072265625, 8.71968244629, -0.0780735069976, 0.023581929588, -0.00772741195539
1.2340290546417236,-5.68622894287, -0.0383072265625, 8.71968244629, -0.0780735069976, 0.023581929588, -0.00772741195539
1.2349441051483154,-5.68622894287, -0.0383072265625, 8.71968244629, -0.0780735069976, 0.023581929588, -0.00772741195539
1.2358059883117676,-5.68622894287, -0.0383072265625, 8.71968244629, -0.0780735069976, 0.023581929588, -0.00772741195539
1.236814022064209,-5.68622894287, -0.0383072265625, 8.71968244629, -0.0780735069976, 0.023581929588, -0.00772741195539
1.2383010387420654,-5.68622894287, -0.0383072265625, 8.71968244629, -0.0780735069976, 0.023581929588, -0.00772741195539
1.2425079345703125,-5.68622894287, -0.0383072265625, 8.71968244629, -0.0780735069976, 0.023581929588, -0.00772741195539
1.2453300952911377,-5.68622894287, -0.0383072265625, 8.71968244629, -0.0780735069976, 0.023581929588, -0.00772741195539
1.247473955154419,-5.68622894287, -0.0383072265625, 8.71968244629, -0.0780735069976, 0.023581929588, -0.00772741195539
1.2522659301757812,-5.68622894287, -0.0383072265625, 8.71968244629, -0.0780735069976, 0.023581929588, -0.00772741195539
1.2535839080810547,-5.68622894287, -0.0383072265625, 8.71968244629, -0.0780735069976, 0.023581929588, -0.00772741195539
1.254728078842163,-5.68622894287, -0.0383072265625, 8.71968244629, -0.0780735069976, 0.023581929588, -0.00772741195539
1.2562780380249023,-5.68622894287, -0.0383072265625, 8.71968244629, -0.0780735069976, 0.023581929588, -0.00772741195539
1.2577600479125977,-5.68622894287, -0.0383072265625, 8.71968244629, -0.0780735069976, 0.023581929588, -0.00772741195539
1.2592461109161377,-5.68622894287, -0.0383072265625, 8.71968244629, -0.0780735069976, 0.023581929588, -0.00772741195539
1.2613351345062256,-5.68622894287, -0.0383072265625, 8.71968244629, -0.0780735069976, 0.023581929588, -0.00772741195539
1.2632150650024414,-5.68622894287, -0.0383072265625, 8.71968244629, -0.0780735069976, 0.023581929588, -0.00772741195539
1.2647759914398193,-5.68622894287, -0.0383072265625, 8.71968244629, -0.0780735069976, 0.023581929588, -0.00772741195539
1.266118049621582,-5.68622894287, -0.0383072265625, 8.71968244629, -0.0780735069976, 0.023581929588, -0.00772741195539
1.2677879333496094,-5.68622894287, -0.0383072265625, 8.71968244629, -0.0780735069976, 0.023581929588, -0.00772741195539
1.2697160243988037,-5.68622894287, -0.0383072265625, 8.71968244629, -0.0780735069976, 0.023581929588, -0.00772741195539
1.2724189758300781,-5.68622894287, -0.0383072265625, 8.71968244629, -0.0780735069976, 0.023581929588, -0.00772741195539
1.2761831283569336,-5.68622894287, -0.0383072265625, 8.71968244629, -0.0780735069976, 0.023581929588, -0.00772741195539
1.2796950340270996,-5.68622894287, -0.0383072265625, 8.71968244629, -0.0780735069976, 0.023581929588, -0.00772741195539
1.2846620082855225,-5.68622894287, -0.0383072265625, 8.71968244629, -0.0780735069976, 0.023581929588, -0.00772741195539
1.2860870361328125,-5.68622894287, -0.0383072265625, 8.71968244629, -0.0780735069976, 0.023581929588, -0.00772741195539
1.2875990867614746,-5.68622894287, -0.0383072265625, 8.71968244629, -0.0780735069976, 0.023581929588, -0.00772741195539
1.28916597366333,-5.68622894287, -0.0383072265625, 8.71968244629, -0.0780735069976, 0.023581929588, -0.00772741195539
1.2906639575958252,-5.68622894287, -0.0383072265625, 8.71968244629, -0.0780735069976, 0.023581929588, -0.00772741195539
1.2925090789794922,-5.68622894287, -0.0383072265625, 8.71968244629, -0.0780735069976, 0.023581929588, -0.00772741195539
1.2941160202026367,-5.68622894287, -0.0383072265625, 8.71968244629, -0.0780735069976, 0.023581929588, -0.00772741195539
1.295762062072754,-5.68622894287, -0.0383072265625, 8.71968244629, -0.0780735069976, 0.023581929588, -0.00772741195539
1.2974328994750977,-5.68622894287, -0.0383072265625, 8.71968244629, -0.0780735069976, 0.023581929588, -0.00772741195539
1.2995080947875977,-5.68622894287, -0.0383072265625, 8.71968244629, -0.0780735069976, 0.023581929588, -0.00772741195539
1.3036611080169678,-5.68622894287, -0.0383072265625, 8.71968244629, -0.0780735069976, 0.023581929588, -0.00772741195539
1.3065071105957031,-5.68622894287, -0.0383072265625, 8.71968244629, -0.0780735069976, 0.023581929588, -0.00772741195539
1.3114349842071533,-5.7508723877, 0.00718260498047, 8.66461580811, -0.0774073507946, 0.0213169984976, -0.00559571210563
1.3133189678192139,-5.7508723877, 0.00718260498047, 8.66461580811, -0.0774073507946, 0.0213169984976, -0.00559571210563
1.3146629333496094,-5.7508723877, 0.00718260498047, 8.66461580811, -0.0774073507946, 0.0213169984976, -0.00559571210563
1.3160579204559326,-5.7508723877, 0.00718260498047, 8.66461580811, -0.0774073507946, 0.0213169984976, -0.00559571210563
1.3179969787597656,-5.7508723877, 0.00718260498047, 8.66461580811, -0.0774073507946, 0.0213169984976, -0.00559571210563
1.3199260234832764,-5.7508723877, 0.00718260498047, 8.66461580811, -0.0774073507946, 0.0213169984976, -0.00559571210563
1.3214781284332275,-5.7508723877, 0.00718260498047, 8.66461580811, -0.0774073507946, 0.0213169984976, -0.00559571210563
1.3235650062561035,-5.7508723877, 0.00718260498047, 8.66461580811, -0.0774073507946, 0.0213169984976, -0.00559571210563
1.3252449035644531,-5.7508723877, 0.00718260498047, 8.66461580811, -0.0774073507946, 0.0213169984976, -0.00559571210563
1.3270559310913086,-5.7508723877, 0.00718260498047, 8.66461580811, -0.0774073507946, 0.0213169984976, -0.00559571210563
1.3285799026489258,-5.7508723877, 0.00718260498047, 8.66461580811, -0.0774073507946, 0.0213169984976, -0.00559571210563
1.330254077911377,-5.7508723877, 0.00718260498047, 8.66461580811, -0.0774073507946, 0.0213169984976, -0.00559571210563
1.332529067993164,-5.7508723877, 0.00718260498047, 8.66461580811, -0.0774073507946, 0.0213169984976, -0.00559571210563
1.3372700214385986,-5.7508723877, 0.00718260498047, 8.66461580811, -0.0774073507946, 0.0213169984976, -0.00559571210563
1.3401191234588623,-5.7508723877, 0.00718260498047, 8.66461580811, -0.0774073507946, 0.0213169984976, -0.00559571210563
1.3427860736846924,-5.7508723877, 0.00718260498047, 8.66461580811, -0.0774073507946, 0.0213169984976, -0.00559571210563
1.3447730541229248,-5.7508723877, 0.00718260498047, 8.66461580811, -0.0774073507946, 0.0213169984976, -0.00559571210563
1.346679925918579,-5.7508723877, 0.00718260498047, 8.66461580811, -0.0774073507946, 0.0213169984976, -0.00559571210563
1.3512120246887207,-5.7508723877, 0.00718260498047, 8.66461580811, -0.0774073507946, 0.0213169984976, -0.00559571210563
1.3526179790496826,-5.7508723877, 0.00718260498047, 8.66461580811, -0.0774073507946, 0.0213169984976, -0.00559571210563
1.353708028793335,-5.7508723877, 0.00718260498047, 8.66461580811, -0.0774073507946, 0.0213169984976, -0.00559571210563
1.3550169467926025,-5.7508723877, 0.00718260498047, 8.66461580811, -0.0774073507946, 0.0213169984976, -0.00559571210563
1.3569269180297852,-5.7508723877, 0.00718260498047, 8.66461580811, -0.0774073507946, 0.0213169984976, -0.00559571210563
1.3580279350280762,-5.7508723877, 0.00718260498047, 8.66461580811, -0.0774073507946, 0.0213169984976, -0.00559571210563
1.3590049743652344,-5.7508723877, 0.00718260498047, 8.66461580811, -0.0774073507946, 0.0213169984976, -0.00559571210563
1.3601510524749756,-5.7508723877, 0.00718260498047, 8.66461580811, -0.0774073507946, 0.0213169984976, -0.00559571210563
1.3616790771484375,-5.7508723877, 0.00718260498047, 8.66461580811, -0.0774073507946, 0.0213169984976, -0.00559571210563
1.3633830547332764,-5.7508723877, 0.00718260498047, 8.66461580811, -0.0774073507946, 0.0213169984976, -0.00559571210563
1.3662281036376953,-5.7508723877, 0.00718260498047, 8.66461580811, -0.0774073507946, 0.0213169984976, -0.00559571210563
1.3684771060943604,-5.7508723877, 0.00718260498047, 8.66461580811, -0.0774073507946, 0.0213169984976, -0.00559571210563
1.3712260723114014,-5.7508723877, 0.00718260498047, 8.66461580811, -0.0774073507946, 0.0213169984976, -0.00559571210563
1.3735079765319824,-5.7508723877, 0.00718260498047, 8.66461580811, -0.0774073507946, 0.0213169984976, -0.00559571210563
1.3786320686340332,-5.7508723877, 0.00718260498047, 8.66461580811, -0.0774073507946, 0.0213169984976, -0.00559571210563
1.3800420761108398,-5.7508723877, 0.00718260498047, 8.66461580811, -0.0774073507946, 0.0213169984976, -0.00559571210563
1.381300926208496,-5.7508723877, 0.00718260498047, 8.66461580811, -0.0774073507946, 0.0213169984976, -0.00559571210563
1.38291597366333,-5.7508723877, 0.00718260498047, 8.66461580811, -0.0774073507946, 0.0213169984976, -0.00559571210563
1.3843379020690918,-5.7508723877, 0.00718260498047, 8.66461580811, -0.0774073507946, 0.0213169984976, -0.00559571210563
1.3858470916748047,-5.7508723877, 0.00718260498047, 8.66461580811, -0.0774073507946, 0.0213169984976, -0.00559571210563
1.3873279094696045,-5.7508723877, 0.00718260498047, 8.66461580811, -0.0774073507946, 0.0213169984976, -0.00559571210563
1.3888530731201172,-5.7508723877, 0.00718260498047, 8.66461580811, -0.0774073507946, 0.0213169984976, -0.00559571210563
1.3903980255126953,-5.7508723877, 0.00718260498047, 8.66461580811, -0.0774073507946, 0.0213169984976, -0.00559571210563
1.3923060894012451,-5.7508723877, 0.00718260498047, 8.66461580811, -0.0774073507946, 0.0213169984976, -0.00559571210563
1.3943889141082764,-5.7508723877, 0.00718260498047, 8.66461580811, -0.0774073507946, 0.0213169984976, -0.00559571210563
1.3977620601654053,-5.7508723877, 0.00718260498047, 8.66461580811, -0.0774073507946, 0.0213169984976, -0.00559571210563
1.401500940322876,-5.7508723877, 0.00718260498047, 8.66461580811, -0.0774073507946, 0.0213169984976, -0.00559571210563
1.404487133026123,-5.7508723877, 0.00718260498047, 8.66461580811, -0.0774073507946, 0.0213169984976, -0.00559571210563
1.4064099788665771,-5.7508723877, 0.00718260498047, 8.66461580811, -0.0774073507946, 0.0213169984976, -0.00559571210563
1.4110159873962402,-5.67186373291, -0.15322890625, 8.82263311768, -0.0855344564718, 0.0178529862418, -0.00999234304577
1.4128680229187012,-5.67186373291, -0.15322890625, 8.82263311768, -0.0855344564718, 0.0178529862418, -0.00999234304577
1.4143760204315186,-5.67186373291, -0.15322890625, 8.82263311768, -0.0855344564718, 0.0178529862418, -0.00999234304577
1.4160609245300293,-5.67186373291, -0.15322890625, 8.82263311768, -0.0855344564718, 0.0178529862418, -0.00999234304577
1.4178991317749023,-5.67186373291, -0.15322890625, 8.82263311768, -0.0855344564718, 0.0178529862418, -0.00999234304577
1.4193921089172363,-5.67186373291, -0.15322890625, 8.82263311768, -0.0855344564718, 0.0178529862418, -0.00999234304577
1.4213011264801025,-5.67186373291, -0.15322890625, 8.82263311768, -0.0855344564718, 0.0178529862418, -0.00999234304577
1.4249169826507568,-5.67186373291, -0.15322890625, 8.82263311768, -0.0855344564718, 0.0178529862418, -0.00999234304577
1.4282209873199463,-5.67186373291, -0.15322890625, 8.82263311768, -0.0855344564718, 0.0178529862418, -0.00999234304577
1.4312620162963867,-5.67186373291, -0.15322890625, 8.82263311768, -0.0855344564718, 0.0178529862418, -0.00999234304577
1.4331409931182861,-5.67186373291, -0.15322890625, 8.82263311768, -0.0855344564718, 0.0178529862418, -0.00999234304577
1.4347810745239258,-5.67186373291, -0.15322890625, 8.82263311768, -0.0855344564718, 0.0178529862418, -0.00999234304577
1.4367389678955078,-5.67186373291, -0.15322890625, 8.82263311768, -0.0855344564718, 0.0178529862418, -0.00999234304577
1.4384520053863525,-5.67186373291, -0.15322890625, 8.82263311768, -0.0855344564718, 0.0178529862418, -0.00999234304577
1.4404289722442627,-5.67186373291, -0.15322890625, 8.82263311768, -0.0855344564718, 0.0178529862418, -0.00999234304577
1.4423270225524902,-5.67186373291, -0.15322890625, 8.82263311768, -0.0855344564718, 0.0178529862418, -0.00999234304577
1.4441900253295898,-5.67186373291, -0.15322890625, 8.82263311768, -0.0855344564718, 0.0178529862418, -0.00999234304577
1.4462940692901611,-5.67186373291, -0.15322890625, 8.82263311768, -0.0855344564718, 0.0178529862418, -0.00999234304577
1.4514830112457275,-5.67186373291, -0.15322890625, 8.82263311768, -0.0855344564718, 0.0178529862418, -0.00999234304577
1.4544599056243896,-5.67186373291, -0.15322890625, 8.82263311768, -0.0855344564718, 0.0178529862418, -0.00999234304577
1.4566318988800049,-5.67186373291, -0.15322890625, 8.82263311768, -0.0855344564718, 0.0178529862418, -0.00999234304577
1.4605140686035156,-5.67186373291, -0.15322890625, 8.82263311768, -0.0855344564718, 0.0178529862418, -0.00999234304577
1.4645960330963135,-5.67186373291, -0.15322890625, 8.82263311768, -0.0855344564718, 0.0178529862418, -0.00999234304577
1.4664249420166016,-5.67186373291, -0.15322890625, 8.82263311768, -0.0855344564718, 0.0178529862418, -0.00999234304577
1.4680230617523193,-5.67186373291, -0.15322890625, 8.82263311768, -0.0855344564718, 0.0178529862418, -0.00999234304577
1.469515085220337,-5.67186373291, -0.15322890625, 8.82263311768, -0.0855344564718, 0.0178529862418, -0.00999234304577
1.4706320762634277,-5.67186373291, -0.15322890625, 8.82263311768, -0.0855344564718, 0.0178529862418, -0.00999234304577
1.4722490310668945,-5.67186373291, -0.15322890625, 8.82263311768, -0.0855344564718, 0.0178529862418, -0.00999234304577
1.4739151000976562,-5.67186373291, -0.15322890625, 8.82263311768, -0.0855344564718, 0.0178529862418, -0.00999234304577
1.4783921241760254,-5.67186373291, -0.15322890625, 8.82263311768, -0.0855344564718, 0.0178529862418, -0.00999234304577
1.4797799587249756,-5.67186373291, -0.15322890625, 8.82263311768, -0.0855344564718, 0.0178529862418, -0.00999234304577
1.481255054473877,-5.67186373291, -0.15322890625, 8.82263311768, -0.0855344564718, 0.0178529862418, -0.00999234304577
1.4829719066619873,-5.67186373291, -0.15322890625, 8.82263311768, -0.0855344564718, 0.0178529862418, -0.00999234304577
1.4861791133880615,-5.67186373291, -0.15322890625, 8.82263311768, -0.0855344564718, 0.0178529862418, -0.00999234304577
1.4886391162872314,-5.67186373291, -0.15322890625, 8.82263311768, -0.0855344564718, 0.0178529862418, -0.00999234304577
1.4911870956420898,-5.67186373291, -0.15322890625, 8.82263311768, -0.0855344564718, 0.0178529862418, -0.00999234304577
1.492901086807251,-5.67186373291, -0.15322890625, 8.82263311768, -0.0855344564718, 0.0178529862418, -0.00999234304577
1.4944140911102295,-5.67186373291, -0.15322890625, 8.82263311768, -0.0855344564718, 0.0178529862418, -0.00999234304577
1.4959211349487305,-5.67186373291, -0.15322890625, 8.82263311768, -0.0855344564718, 0.0178529862418, -0.00999234304577
1.4978609085083008,-5.67186373291, -0.15322890625, 8.82263311768, -0.0855344564718, 0.0178529862418, -0.00999234304577
1.4995861053466797,-5.67186373291, -0.15322890625, 8.82263311768, -0.0855344564718, 0.0178529862418, -0.00999234304577
1.501258134841919,-5.67186373291, -0.15322890625, 8.82263311768, -0.0855344564718, 0.0178529862418, -0.00999234304577
1.5031089782714844,-5.67186373291, -0.15322890625, 8.82263311768, -0.0855344564718, 0.0178529862418, -0.00999234304577
1.504741907119751,-5.67186373291, -0.15322890625, 8.82263311768, -0.0855344564718, 0.0178529862418, -0.00999234304577
1.5092589855194092,-5.69341154785, -0.0215478149414, 8.80347950439, -0.0776738132758, 0.0239816233098, -0.00466309342136
1.510822057723999,-5.69341154785, -0.0215478149414, 8.80347950439, -0.0776738132758, 0.0239816233098, -0.00466309342136
1.5126841068267822,-5.69341154785, -0.0215478149414, 8.80347950439, -0.0776738132758, 0.0239816233098, -0.00466309342136
1.5144200325012207,-5.69341154785, -0.0215478149414, 8.80347950439, -0.0776738132758, 0.0239816233098, -0.00466309342136
1.5166230201721191,-5.69341154785, -0.0215478149414, 8.80347950439, -0.0776738132758, 0.0239816233098, -0.00466309342136
1.5209479331970215,-5.69341154785, -0.0215478149414, 8.80347950439, -0.0776738132758, 0.0239816233098, -0.00466309342136
1.5245471000671387,-5.69341154785, -0.0215478149414, 8.80347950439, -0.0776738132758, 0.0239816233098, -0.00466309342136
1.527151107788086,-5.69341154785, -0.0215478149414, 8.80347950439, -0.0776738132758, 0.0239816233098, -0.00466309342136
1.5287930965423584,-5.69341154785, -0.0215478149414, 8.80347950439, -0.0776738132758, 0.0239816233098, -0.00466309342136
1.5303521156311035,-5.69341154785, -0.0215478149414, 8.80347950439, -0.0776738132758, 0.0239816233098, -0.00466309342136
1.531968116760254,-5.69341154785, -0.0215478149414, 8.80347950439, -0.0776738132758, 0.0239816233098, -0.00466309342136
1.533569097518921,-5.69341154785, -0.0215478149414, 8.80347950439, -0.0776738132758, 0.0239816233098, -0.00466309342136
1.5351910591125488,-5.69341154785, -0.0215478149414, 8.80347950439, -0.0776738132758, 0.0239816233098, -0.00466309342136
1.5369980335235596,-5.69341154785, -0.0215478149414, 8.80347950439, -0.0776738132758, 0.0239816233098, -0.00466309342136
1.5386769771575928,-5.69341154785, -0.0215478149414, 8.80347950439, -0.0776738132758, 0.0239816233098, -0.00466309342136
1.5406239032745361,-5.69341154785, -0.0215478149414, 8.80347950439, -0.0776738132758, 0.0239816233098, -0.00466309342136
1.5426769256591797,-5.69341154785, -0.0215478149414, 8.80347950439, -0.0776738132758, 0.0239816233098, -0.00466309342136
1.5450119972229004,-5.69341154785, -0.0215478149414, 8.80347950439, -0.0776738132758, 0.0239816233098, -0.00466309342136
1.5476489067077637,-5.69341154785, -0.0215478149414, 8.80347950439, -0.0776738132758, 0.0239816233098, -0.00466309342136
1.5558140277862549,-5.69341154785, -0.0215478149414, 8.80347950439, -0.0776738132758, 0.0239816233098, -0.00466309342136
1.5581409931182861,-5.69341154785, -0.0215478149414, 8.80347950439, -0.0776738132758, 0.0239816233098, -0.00466309342136
1.5597879886627197,-5.69341154785, -0.0215478149414, 8.80347950439, -0.0776738132758, 0.0239816233098, -0.00466309342136
1.5613291263580322,-5.69341154785, -0.0215478149414, 8.80347950439, -0.0776738132758, 0.0239816233098, -0.00466309342136
1.5636811256408691,-5.69341154785, -0.0215478149414, 8.80347950439, -0.0776738132758, 0.0239816233098, -0.00466309342136
1.5655159950256348,-5.69341154785, -0.0215478149414, 8.80347950439, -0.0776738132758, 0.0239816233098, -0.00466309342136
1.5670759677886963,-5.69341154785, -0.0215478149414, 8.80347950439, -0.0776738132758, 0.0239816233098, -0.00466309342136
1.5832829475402832,-5.69341154785, -0.0215478149414, 8.80347950439, -0.0776738132758, 0.0239816233098, -0.00466309342136
1.5850269794464111,-5.69341154785, -0.0215478149414, 8.80347950439, -0.0776738132758, 0.0239816233098, -0.00466309342136
1.5864191055297852,-5.69341154785, -0.0215478149414, 8.80347950439, -0.0776738132758, 0.0239816233098, -0.00466309342136
1.587575912475586,-5.69341154785, -0.0215478149414, 8.80347950439, -0.0776738132758, 0.0239816233098, -0.00466309342136
1.5886309146881104,-5.69341154785, -0.0215478149414, 8.80347950439, -0.0776738132758, 0.0239816233098, -0.00466309342136
1.5896360874176025,-5.69341154785, -0.0215478149414, 8.80347950439, -0.0776738132758, 0.0239816233098, -0.00466309342136
1.590667963027954,-5.69341154785, -0.0215478149414, 8.80347950439, -0.0776738132758, 0.0239816233098, -0.00466309342136
1.5917949676513672,-5.69341154785, -0.0215478149414, 8.80347950439, -0.0776738132758, 0.0239816233098, -0.00466309342136
1.5929620265960693,-5.69341154785, -0.0215478149414, 8.80347950439, -0.0776738132758, 0.0239816233098, -0.00466309342136
1.594130039215088,-5.69341154785, -0.0215478149414, 8.80347950439, -0.0776738132758, 0.0239816233098, -0.00466309342136
1.595400094985962,-5.69341154785, -0.0215478149414, 8.80347950439, -0.0776738132758, 0.0239816233098, -0.00466309342136
1.5964319705963135,-5.69341154785, -0.0215478149414, 8.80347950439, -0.0776738132758, 0.0239816233098, -0.00466309342136
1.5977420806884766,-5.69341154785, -0.0215478149414, 8.80347950439, -0.0776738132758, 0.0239816233098, -0.00466309342136
1.5990900993347168,-5.69341154785, -0.0215478149414, 8.80347950439, -0.0776738132758, 0.0239816233098, -0.00466309342136
1.600248098373413,-5.69341154785, -0.0215478149414, 8.80347950439, -0.0776738132758, 0.0239816233098, -0.00466309342136
1.6011850833892822,-5.69341154785, -0.0215478149414, 8.80347950439, -0.0776738132758, 0.0239816233098, -0.00466309342136
1.6025419235229492,-5.69341154785, -0.0215478149414, 8.80347950439, -0.0776738132758, 0.0239816233098, -0.00466309342136
1.6042211055755615,-5.69341154785, -0.0215478149414, 8.80347950439, -0.0776738132758, 0.0239816233098, -0.00466309342136
1.6064980030059814,-5.69341154785, -0.0215478149414, 8.80347950439, -0.0776738132758, 0.0239816233098, -0.00466309342136
1.6104159355163574,-5.69341154785, -0.0215478149414, 8.80347950439, -0.0776738132758, 0.0239816233098, -0.00466309342136
1.6171200275421143,-5.69580574951, -0.0646434448242, 8.63109698486, -0.0812710567723, 0.0261133231596, -0.00799387443662
1.6205129623413086,-5.69580574951, -0.0646434448242, 8.63109698486, -0.0812710567723, 0.0261133231596, -0.00799387443662
1.622725009918213,-5.69580574951, -0.0646434448242, 8.63109698486, -0.0812710567723, 0.0261133231596, -0.00799387443662
1.6243059635162354,-5.69580574951, -0.0646434448242, 8.63109698486, -0.0812710567723, 0.0261133231596, -0.00799387443662
1.6261470317840576,-5.69580574951, -0.0646434448242, 8.63109698486, -0.0812710567723, 0.0261133231596, -0.00799387443662
1.6278080940246582,-5.69580574951, -0.0646434448242, 8.63109698486, -0.0812710567723, 0.0261133231596, -0.00799387443662
1.6293940544128418,-5.69580574951, -0.0646434448242, 8.63109698486, -0.0812710567723, 0.0261133231596, -0.00799387443662
1.6311450004577637,-5.69580574951, -0.0646434448242, 8.63109698486, -0.0812710567723, 0.0261133231596, -0.00799387443662
1.6328020095825195,-5.69580574951, -0.0646434448242, 8.63109698486, -0.0812710567723, 0.0261133231596, -0.00799387443662
1.6346690654754639,-5.69580574951, -0.0646434448242, 8.63109698486, -0.0812710567723, 0.0261133231596, -0.00799387443662
1.6369431018829346,-5.69580574951, -0.0646434448242, 8.63109698486, -0.0812710567723, 0.0261133231596, -0.00799387443662
1.6399049758911133,-5.69580574951, -0.0646434448242, 8.63109698486, -0.0812710567723, 0.0261133231596, -0.00799387443662
1.644690990447998,-5.69580574951, -0.0646434448242, 8.63109698486, -0.0812710567723, 0.0261133231596, -0.00799387443662
1.6477439403533936,-5.69580574951, -0.0646434448242, 8.63109698486, -0.0812710567723, 0.0261133231596, -0.00799387443662
1.6552131175994873,-5.69580574951, -0.0646434448242, 8.63109698486, -0.0812710567723, 0.0261133231596, -0.00799387443662
1.6573610305786133,-5.69580574951, -0.0646434448242, 8.63109698486, -0.0812710567723, 0.0261133231596, -0.00799387443662
1.659398078918457,-5.69580574951, -0.0646434448242, 8.63109698486, -0.0812710567723, 0.0261133231596, -0.00799387443662
1.6628360748291016,-5.69580574951, -0.0646434448242, 8.63109698486, -0.0812710567723, 0.0261133231596, -0.00799387443662
1.6644999980926514,-5.69580574951, -0.0646434448242, 8.63109698486, -0.0812710567723, 0.0261133231596, -0.00799387443662
1.666628122329712,-5.69580574951, -0.0646434448242, 8.63109698486, -0.0812710567723, 0.0261133231596, -0.00799387443662
1.6681020259857178,-5.69580574951, -0.0646434448242, 8.63109698486, -0.0812710567723, 0.0261133231596, -0.00799387443662
1.6695199012756348,-5.69580574951, -0.0646434448242, 8.63109698486, -0.0812710567723, 0.0261133231596, -0.00799387443662
1.6712539196014404,-5.69580574951, -0.0646434448242, 8.63109698486, -0.0812710567723, 0.0261133231596, -0.00799387443662
1.6755750179290771,-5.69580574951, -0.0646434448242, 8.63109698486, -0.0812710567723, 0.0261133231596, -0.00799387443662
1.678307056427002,-5.69580574951, -0.0646434448242, 8.63109698486, -0.0812710567723, 0.0261133231596, -0.00799387443662
1.680920124053955,-5.69580574951, -0.0646434448242, 8.63109698486, -0.0812710567723, 0.0261133231596, -0.00799387443662
1.6859650611877441,-5.69580574951, -0.0646434448242, 8.63109698486, -0.0812710567723, 0.0261133231596, -0.00799387443662
1.6876349449157715,-5.69580574951, -0.0646434448242, 8.63109698486, -0.0812710567723, 0.0261133231596, -0.00799387443662
1.689141035079956,-5.69580574951, -0.0646434448242, 8.63109698486, -0.0812710567723, 0.0261133231596, -0.00799387443662
1.6905159950256348,-5.69580574951, -0.0646434448242, 8.63109698486, -0.0812710567723, 0.0261133231596, -0.00799387443662
1.6923859119415283,-5.69580574951, -0.0646434448242, 8.63109698486, -0.0812710567723, 0.0261133231596, -0.00799387443662
1.693922996520996,-5.69580574951, -0.0646434448242, 8.63109698486, -0.0812710567723, 0.0261133231596, -0.00799387443662
1.6957781314849854,-5.69580574951, -0.0646434448242, 8.63109698486, -0.0812710567723, 0.0261133231596, -0.00799387443662
1.6991429328918457,-5.69580574951, -0.0646434448242, 8.63109698486, -0.0812710567723, 0.0261133231596, -0.00799387443662
1.7018189430236816,-5.69580574951, -0.0646434448242, 8.63109698486, -0.0812710567723, 0.0261133231596, -0.00799387443662
1.7045230865478516,-5.69580574951, -0.0646434448242, 8.63109698486, -0.0812710567723, 0.0261133231596, -0.00799387443662
1.709873914718628,-5.72693037109, -0.0430956298828, 8.73644185791, -0.077940275757, 0.022915773385, -0.00879326188028
1.7110729217529297,-5.72693037109, -0.0430956298828, 8.73644185791, -0.077940275757, 0.022915773385, -0.00879326188028
1.712541103363037,-5.72693037109, -0.0430956298828, 8.73644185791, -0.077940275757, 0.022915773385, -0.00879326188028
1.713696002960205,-5.72693037109, -0.0430956298828, 8.73644185791, -0.077940275757, 0.022915773385, -0.00879326188028
1.7146430015563965,-5.72693037109, -0.0430956298828, 8.73644185791, -0.077940275757, 0.022915773385, -0.00879326188028
1.7156801223754883,-5.72693037109, -0.0430956298828, 8.73644185791, -0.077940275757, 0.022915773385, -0.00879326188028
1.7170300483703613,-5.72693037109, -0.0430956298828, 8.73644185791, -0.077940275757, 0.022915773385, -0.00879326188028
1.718322992324829,-5.72693037109, -0.0430956298828, 8.73644185791, -0.077940275757, 0.022915773385, -0.00879326188028
1.7195630073547363,-5.72693037109, -0.0430956298828, 8.73644185791, -0.077940275757, 0.022915773385, -0.00879326188028
1.7205920219421387,-5.72693037109, -0.0430956298828, 8.73644185791, -0.077940275757, 0.022915773385, -0.00879326188028
1.7218139171600342,-5.72693037109, -0.0430956298828, 8.73644185791, -0.077940275757, 0.022915773385, -0.00879326188028
1.7229149341583252,-5.72693037109, -0.0430956298828, 8.73644185791, -0.077940275757, 0.022915773385, -0.00879326188028
1.7238800525665283,-5.72693037109, -0.0430956298828, 8.73644185791, -0.077940275757, 0.022915773385, -0.00879326188028
1.725325107574463,-5.72693037109, -0.0430956298828, 8.73644185791, -0.077940275757, 0.022915773385, -0.00879326188028
1.726996898651123,-5.72693037109, -0.0430956298828, 8.73644185791, -0.077940275757, 0.022915773385, -0.00879326188028
1.7302160263061523,-5.72693037109, -0.0430956298828, 8.73644185791, -0.077940275757, 0.022915773385, -0.00879326188028
1.7324790954589844,-5.72693037109, -0.0430956298828, 8.73644185791, -0.077940275757, 0.022915773385, -0.00879326188028
1.7349879741668701,-5.72693037109, -0.0430956298828, 8.73644185791, -0.077940275757, 0.022915773385, -0.00879326188028
1.7368080615997314,-5.72693037109, -0.0430956298828, 8.73644185791, -0.077940275757, 0.022915773385, -0.00879326188028
1.737955093383789,-5.72693037109, -0.0430956298828, 8.73644185791, -0.077940275757, 0.022915773385, -0.00879326188028
1.7390110492706299,-5.72693037109, -0.0430956298828, 8.73644185791, -0.077940275757, 0.022915773385, -0.00879326188028
1.740664005279541,-5.72693037109, -0.0430956298828, 8.73644185791, -0.077940275757, 0.022915773385, -0.00879326188028
1.7422010898590088,-5.72693037109, -0.0430956298828, 8.73644185791, -0.077940275757, 0.022915773385, -0.00879326188028
1.743894100189209,-5.72693037109, -0.0430956298828, 8.73644185791, -0.077940275757, 0.022915773385, -0.00879326188028
1.7456510066986084,-5.72693037109, -0.0430956298828, 8.73644185791, -0.077940275757, 0.022915773385, -0.00879326188028
1.7480130195617676,-5.72693037109, -0.0430956298828, 8.73644185791, -0.077940275757, 0.022915773385, -0.00879326188028
1.753235101699829,-5.72693037109, -0.0430956298828, 8.73644185791, -0.077940275757, 0.022915773385, -0.00879326188028
1.7546119689941406,-5.72693037109, -0.0430956298828, 8.73644185791, -0.077940275757, 0.022915773385, -0.00879326188028
1.7556779384613037,-5.72693037109, -0.0430956298828, 8.73644185791, -0.077940275757, 0.022915773385, -0.00879326188028
1.756911039352417,-5.72693037109, -0.0430956298828, 8.73644185791, -0.077940275757, 0.022915773385, -0.00879326188028
1.7592239379882812,-5.72693037109, -0.0430956298828, 8.73644185791, -0.077940275757, 0.022915773385, -0.00879326188028
1.7612249851226807,-5.72693037109, -0.0430956298828, 8.73644185791, -0.077940275757, 0.022915773385, -0.00879326188028
1.7629430294036865,-5.72693037109, -0.0430956298828, 8.73644185791, -0.077940275757, 0.022915773385, -0.00879326188028
1.7656381130218506,-5.72693037109, -0.0430956298828, 8.73644185791, -0.077940275757, 0.022915773385, -0.00879326188028
1.7696130275726318,-5.72693037109, -0.0430956298828, 8.73644185791, -0.077940275757, 0.022915773385, -0.00879326188028
1.7736871242523193,-5.72693037109, -0.0430956298828, 8.73644185791, -0.077940275757, 0.022915773385, -0.00879326188028
1.7787621021270752,-5.72693037109, -0.0430956298828, 8.73644185791, -0.077940275757, 0.022915773385, -0.00879326188028
1.78035306930542,-5.72693037109, -0.0430956298828, 8.73644185791, -0.077940275757, 0.022915773385, -0.00879326188028
1.7823660373687744,-5.72693037109, -0.0430956298828, 8.73644185791, -0.077940275757, 0.022915773385, -0.00879326188028
1.783843994140625,-5.72693037109, -0.0430956298828, 8.73644185791, -0.077940275757, 0.022915773385, -0.00879326188028
1.7857320308685303,-5.72693037109, -0.0430956298828, 8.73644185791, -0.077940275757, 0.022915773385, -0.00879326188028
1.7881889343261719,-5.72693037109, -0.0430956298828, 8.73644185791, -0.077940275757, 0.022915773385, -0.00879326188028
1.7928199768066406,-5.72693037109, -0.0430956298828, 8.73644185791, -0.077940275757, 0.022915773385, -0.00879326188028
1.796199083328247,-5.72693037109, -0.0430956298828, 8.73644185791, -0.077940275757, 0.022915773385, -0.00879326188028
1.7981560230255127,-5.72693037109, -0.0430956298828, 8.73644185791, -0.077940275757, 0.022915773385, -0.00879326188028
1.8000080585479736,-5.72693037109, -0.0430956298828, 8.73644185791, -0.077940275757, 0.022915773385, -0.00879326188028
1.8020350933074951,-5.72693037109, -0.0430956298828, 8.73644185791, -0.077940275757, 0.022915773385, -0.00879326188028
1.8037300109863281,-5.72693037109, -0.0430956298828, 8.73644185791, -0.077940275757, 0.022915773385, -0.00879326188028
1.8056960105895996,-5.72693037109, -0.0430956298828, 8.73644185791, -0.077940275757, 0.022915773385, -0.00879326188028
1.8073461055755615,-5.72693037109, -0.0430956298828, 8.73644185791, -0.077940275757, 0.022915773385, -0.00879326188028
1.8190159797668457,-5.74129558105, -0.0239420166016, 8.76996068115, -0.0815375192535, 0.0218499234601, -0.00413016845892
1.820810079574585,-5.74129558105, -0.0239420166016, 8.76996068115, -0.0815375192535, 0.0218499234601, -0.00413016845892
1.8246490955352783,-5.74129558105, -0.0239420166016, 8.76996068115, -0.0815375192535, 0.0218499234601, -0.00413016845892
1.8278748989105225,-5.74129558105, -0.0239420166016, 8.76996068115, -0.0815375192535, 0.0218499234601, -0.00413016845892
1.8308091163635254,-5.74129558105, -0.0239420166016, 8.76996068115, -0.0815375192535, 0.0218499234601, -0.00413016845892
1.83268404006958,-5.74129558105, -0.0239420166016, 8.76996068115, -0.0815375192535, 0.0218499234601, -0.00413016845892
1.8348209857940674,-5.74129558105, -0.0239420166016, 8.76996068115, -0.0815375192535, 0.0218499234601, -0.00413016845892
1.836751937866211,-5.74129558105, -0.0239420166016, 8.76996068115, -0.0815375192535, 0.0218499234601, -0.00413016845892
1.8383169174194336,-5.74129558105, -0.0239420166016, 8.76996068115, -0.0815375192535, 0.0218499234601, -0.00413016845892
1.8403170108795166,-5.74129558105, -0.0239420166016, 8.76996068115, -0.0815375192535, 0.0218499234601, -0.00413016845892
1.8417510986328125,-5.74129558105, -0.0239420166016, 8.76996068115, -0.0815375192535, 0.0218499234601, -0.00413016845892
1.8432469367980957,-5.74129558105, -0.0239420166016, 8.76996068115, -0.0815375192535, 0.0218499234601, -0.00413016845892
1.844346046447754,-5.74129558105, -0.0239420166016, 8.76996068115, -0.0815375192535, 0.0218499234601, -0.00413016845892
1.8453090190887451,-5.74129558105, -0.0239420166016, 8.76996068115, -0.0815375192535, 0.0218499234601, -0.00413016845892
1.8466649055480957,-5.74129558105, -0.0239420166016, 8.76996068115, -0.0815375192535, 0.0218499234601, -0.00413016845892
1.848897933959961,-5.74129558105, -0.0239420166016, 8.76996068115, -0.0815375192535, 0.0218499234601, -0.00413016845892
1.852212905883789,-5.74129558105, -0.0239420166016, 8.76996068115, -0.0815375192535, 0.0218499234601, -0.00413016845892
1.85856294631958,-5.74129558105, -0.0239420166016, 8.76996068115, -0.0815375192535, 0.0218499234601, -0.00413016845892
1.8611180782318115,-5.74129558105, -0.0239420166016, 8.76996068115, -0.0815375192535, 0.0218499234601, -0.00413016845892
1.8629379272460938,-5.74129558105, -0.0239420166016, 8.76996068115, -0.0815375192535, 0.0218499234601, -0.00413016845892
1.8640320301055908,-5.74129558105, -0.0239420166016, 8.76996068115, -0.0815375192535, 0.0218499234601, -0.00413016845892
1.8651020526885986,-5.74129558105, -0.0239420166016, 8.76996068115, -0.0815375192535, 0.0218499234601, -0.00413016845892
1.866750955581665,-5.74129558105, -0.0239420166016, 8.76996068115, -0.0815375192535, 0.0218499234601, -0.00413016845892
1.8683531284332275,-5.74129558105, -0.0239420166016, 8.76996068115, -0.0815375192535, 0.0218499234601, -0.00413016845892
1.8699300289154053,-5.74129558105, -0.0239420166016, 8.76996068115, -0.0815375192535, 0.0218499234601, -0.00413016845892
1.8714649677276611,-5.74129558105, -0.0239420166016, 8.76996068115, -0.0815375192535, 0.0218499234601, -0.00413016845892
1.873492956161499,-5.74129558105, -0.0239420166016, 8.76996068115, -0.0815375192535, 0.0218499234601, -0.00413016845892
1.8752939701080322,-5.74129558105, -0.0239420166016, 8.76996068115, -0.0815375192535, 0.0218499234601, -0.00413016845892
1.8768250942230225,-5.74129558105, -0.0239420166016, 8.76996068115, -0.0815375192535, 0.0218499234601, -0.00413016845892
1.8786709308624268,-5.74129558105, -0.0239420166016, 8.76996068115, -0.0815375192535, 0.0218499234601, -0.00413016845892
1.883018970489502,-5.74129558105, -0.0239420166016, 8.76996068115, -0.0815375192535, 0.0218499234601, -0.00413016845892
1.8913369178771973,-5.74129558105, -0.0239420166016, 8.76996068115, -0.0815375192535, 0.0218499234601, -0.00413016845892
1.8933420181274414,-5.74129558105, -0.0239420166016, 8.76996068115, -0.0815375192535, 0.0218499234601, -0.00413016845892
1.894808053970337,-5.74129558105, -0.0239420166016, 8.76996068115, -0.0815375192535, 0.0218499234601, -0.00413016845892
1.896362066268921,-5.74129558105, -0.0239420166016, 8.76996068115, -0.0815375192535, 0.0218499234601, -0.00413016845892
1.898108959197998,-5.74129558105, -0.0239420166016, 8.76996068115, -0.0815375192535, 0.0218499234601, -0.00413016845892
1.8999459743499756,-5.74129558105, -0.0239420166016, 8.76996068115, -0.0815375192535, 0.0218499234601, -0.00413016845892
1.90181303024292,-5.74129558105, -0.0239420166016, 8.76996068115, -0.0815375192535, 0.0218499234601, -0.00413016845892
1.9037389755249023,-5.74129558105, -0.0239420166016, 8.76996068115, -0.0815375192535, 0.0218499234601, -0.00413016845892
1.9058620929718018,-5.74129558105, -0.0239420166016, 8.76996068115, -0.0815375192535, 0.0218499234601, -0.00413016845892
1.9146249294281006,-5.68862314453, 0.0119710083008, 8.75080706787, -0.0815375192535, 0.0203843798134, -0.00639509954929
1.918213129043579,-5.68862314453, 0.0119710083008, 8.75080706787, -0.0815375192535, 0.0203843798134, -0.00639509954929
1.9208619594573975,-5.68862314453, 0.0119710083008, 8.75080706787, -0.0815375192535, 0.0203843798134, -0.00639509954929
1.9227120876312256,-5.68862314453, 0.0119710083008, 8.75080706787, -0.0815375192535, 0.0203843798134, -0.00639509954929
1.9245340824127197,-5.68862314453, 0.0119710083008, 8.75080706787, -0.0815375192535, 0.0203843798134, -0.00639509954929
1.9264650344848633,-5.68862314453, 0.0119710083008, 8.75080706787, -0.0815375192535, 0.0203843798134, -0.00639509954929
1.9282889366149902,-5.68862314453, 0.0119710083008, 8.75080706787, -0.0815375192535, 0.0203843798134, -0.00639509954929
1.930408000946045,-5.68862314453, 0.0119710083008, 8.75080706787, -0.0815375192535, 0.0203843798134, -0.00639509954929
1.932318925857544,-5.68862314453, 0.0119710083008, 8.75080706787, -0.0815375192535, 0.0203843798134, -0.00639509954929
1.9340229034423828,-5.68862314453, 0.0119710083008, 8.75080706787, -0.0815375192535, 0.0203843798134, -0.00639509954929
1.9362609386444092,-5.68862314453, 0.0119710083008, 8.75080706787, -0.0815375192535, 0.0203843798134, -0.00639509954929
1.9382541179656982,-5.68862314453, 0.0119710083008, 8.75080706787, -0.0815375192535, 0.0203843798134, -0.00639509954929
1.941206932067871,-5.68862314453, 0.0119710083008, 8.75080706787, -0.0815375192535, 0.0203843798134, -0.00639509954929
1.9457199573516846,-5.68862314453, 0.0119710083008, 8.75080706787, -0.0815375192535, 0.0203843798134, -0.00639509954929
1.948673963546753,-5.68862314453, 0.0119710083008, 8.75080706787, -0.0815375192535, 0.0203843798134, -0.00639509954929
1.9511299133300781,-5.68862314453, 0.0119710083008, 8.75080706787, -0.0815375192535, 0.0203843798134, -0.00639509954929
1.9533390998840332,-5.68862314453, 0.0119710083008, 8.75080706787, -0.0815375192535, 0.0203843798134, -0.00639509954929
1.9552130699157715,-5.68862314453, 0.0119710083008, 8.75080706787, -0.0815375192535, 0.0203843798134, -0.00639509954929
1.9610240459442139,-5.68862314453, 0.0119710083008, 8.75080706787, -0.0815375192535, 0.0203843798134, -0.00639509954929
1.9630160331726074,-5.68862314453, 0.0119710083008, 8.75080706787, -0.0815375192535, 0.0203843798134, -0.00639509954929
1.9643690586090088,-5.68862314453, 0.0119710083008, 8.75080706787, -0.0815375192535, 0.0203843798134, -0.00639509954929
1.9662439823150635,-5.68862314453, 0.0119710083008, 8.75080706787, -0.0815375192535, 0.0203843798134, -0.00639509954929
1.9674160480499268,-5.68862314453, 0.0119710083008, 8.75080706787, -0.0815375192535, 0.0203843798134, -0.00639509954929
1.9689970016479492,-5.68862314453, 0.0119710083008, 8.75080706787, -0.0815375192535, 0.0203843798134, -0.00639509954929
1.9707589149475098,-5.68862314453, 0.0119710083008, 8.75080706787, -0.0815375192535, 0.0203843798134, -0.00639509954929
1.9744000434875488,-5.68862314453, 0.0119710083008, 8.75080706787, -0.0815375192535, 0.0203843798134, -0.00639509954929
1.9769489765167236,-5.68862314453, 0.0119710083008, 8.75080706787, -0.0815375192535, 0.0203843798134, -0.00639509954929
1.979254961013794,-5.68862314453, 0.0119710083008, 8.75080706787, -0.0815375192535, 0.0203843798134, -0.00639509954929
1.984908103942871,-5.68862314453, 0.0119710083008, 8.75080706787, -0.0815375192535, 0.0203843798134, -0.00639509954929
1.9865128993988037,-5.68862314453, 0.0119710083008, 8.75080706787, -0.0815375192535, 0.0203843798134, -0.00639509954929
1.9876060485839844,-5.68862314453, 0.0119710083008, 8.75080706787, -0.0815375192535, 0.0203843798134, -0.00639509954929
1.988663911819458,-5.68862314453, 0.0119710083008, 8.75080706787, -0.0815375192535, 0.0203843798134, -0.00639509954929
1.9897139072418213,-5.68862314453, 0.0119710083008, 8.75080706787, -0.0815375192535, 0.0203843798134, -0.00639509954929
1.9908111095428467,-5.68862314453, 0.0119710083008, 8.75080706787, -0.0815375192535, 0.0203843798134, -0.00639509954929
1.9920480251312256,-5.68862314453, 0.0119710083008, 8.75080706787, -0.0815375192535, 0.0203843798134, -0.00639509954929
1.993269920349121,-5.68862314453, 0.0119710083008, 8.75080706787, -0.0815375192535, 0.0203843798134, -0.00639509954929
1.995150089263916,-5.68862314453, 0.0119710083008, 8.75080706787, -0.0815375192535, 0.0203843798134, -0.00639509954929
1.996880054473877,-5.68862314453, 0.0119710083008, 8.75080706787, -0.0815375192535, 0.0203843798134, -0.00639509954929
1.9987359046936035,-5.68862314453, 0.0119710083008, 8.75080706787, -0.0815375192535, 0.0203843798134, -0.00639509954929
2.001176118850708,-5.68862314453, 0.0119710083008, 8.75080706787, -0.0815375192535, 0.0203843798134, -0.00639509954929
2.0042290687561035,-5.68862314453, 0.0119710083008, 8.75080706787, -0.0815375192535, 0.0203843798134, -0.00639509954929
2.0123989582061768,-5.67665213623, -0.0670376464844, 8.72447084961, -0.081004594291, 0.0207840735352, -0.00479632466197
2.014585018157959,-5.67665213623, -0.0670376464844, 8.72447084961, -0.081004594291, 0.0207840735352, -0.00479632466197
2.0172979831695557,-5.67665213623, -0.0670376464844, 8.72447084961, -0.081004594291, 0.0207840735352, -0.00479632466197
2.0192060470581055,-5.67665213623, -0.0670376464844, 8.72447084961, -0.081004594291, 0.0207840735352, -0.00479632466197
2.021026134490967,-5.67665213623, -0.0670376464844, 8.72447084961, -0.081004594291, 0.0207840735352, -0.00479632466197
2.023171901702881,-5.67665213623, -0.0670376464844, 8.72447084961, -0.081004594291, 0.0207840735352, -0.00479632466197
2.0250720977783203,-5.67665213623, -0.0670376464844, 8.72447084961, -0.081004594291, 0.0207840735352, -0.00479632466197
2.0269129276275635,-5.67665213623, -0.0670376464844, 8.72447084961, -0.081004594291, 0.0207840735352, -0.00479632466197
2.0290510654449463,-5.67665213623, -0.0670376464844, 8.72447084961, -0.081004594291, 0.0207840735352, -0.00479632466197
2.0313429832458496,-5.67665213623, -0.0670376464844, 8.72447084961, -0.081004594291, 0.0207840735352, -0.00479632466197
2.035783052444458,-5.67665213623, -0.0670376464844, 8.72447084961, -0.081004594291, 0.0207840735352, -0.00479632466197
2.0396640300750732,-5.67665213623, -0.0670376464844, 8.72447084961, -0.081004594291, 0.0207840735352, -0.00479632466197
2.042444944381714,-5.67665213623, -0.0670376464844, 8.72447084961, -0.081004594291, 0.0207840735352, -0.00479632466197
2.0442140102386475,-5.67665213623, -0.0670376464844, 8.72447084961, -0.081004594291, 0.0207840735352, -0.00479632466197
