time,acceX,acceY,acceZ,gyroX,gyroY,gyroZ
0.05552196502685547,,0,0,0,0
0.061637163162231445,,0,0,0,0
0.06753301620483398,,0,0,0,0
0.07762598991394043,,0,0,0,0
0.09244608879089355,,0,0,0,0
0.09541702270507812,,0,0,0,0
0.09673500061035156,,0,0,0,0
0.09792804718017578,,0,0,0,0
0.09917402267456055,,0,0,0,0
0.10041117668151855,,0,0,0,0
0.10178709030151367,,0,0,0,0
0.10281014442443848,,0,0,0,0
0.10437917709350586,,0,0,0,0
0.10668396949768066,,0,0,0,0
0.10784602165222168,,0,0,0,0
0.10895705223083496,,0,0,0,0
0.11000609397888184,,0,0,0,0
0.11116504669189453,,0,0,0,0
0.1122901439666748,,0,0,0,0
0.11323714256286621,,0,0,0,0
0.11425113677978516,,0,0,0,0
0.11525702476501465,,0,0,0,0
0.11714506149291992,,0,0,0,0
0.11828899383544922,,0,0,0,0
0.1193091869354248,,0,0,0,0
0.12026309967041016,,0,0,0,0
0.12144112586975098,,0,0,0,0
0.12272095680236816,,0,0,0,0
0.1241309642791748,,0,0,0,0
0.12561607360839844,,0,0,0,0
0.1296839714050293,-0.749385119629, 3.09809694824, 9.18415756836, 30.9541984733, -0.969465648855, -0.282442748092
0.1318659782409668,-0.749385119629, 3.09809694824, 9.18415756836, 30.9541984733, -0.969465648855, -0.282442748092
0.13359713554382324,-0.749385119629, 3.09809694824, 9.18415756836, 30.9541984733, -0.969465648855, -0.282442748092
0.13496804237365723,-0.749385119629, 3.09809694824, 9.18415756836, 30.9541984733, -0.969465648855, -0.282442748092
0.1360931396484375,-0.749385119629, 3.09809694824, 9.18415756836, 30.9541984733, -0.969465648855, -0.282442748092
0.1372671127319336,-0.749385119629, 3.09809694824, 9.18415756836, 30.9541984733, -0.969465648855, -0.282442748092
0.1383969783782959,-0.749385119629, 3.09809694824, 9.18415756836, 30.9541984733, -0.969465648855, -0.282442748092
0.1393880844116211,-0.749385119629, 3.09809694824, 9.18415756836, 30.9541984733, -0.969465648855, -0.282442748092
0.1403791904449463,-0.749385119629, 3.09809694824, 9.18415756836, 30.9541984733, -0.969465648855, -0.282442748092
0.14142799377441406,-0.749385119629, 3.09809694824, 9.18415756836, 30.9541984733, -0.969465648855, -0.282442748092
0.14226508140563965,-0.749385119629, 3.09809694824, 9.18415756836, 30.9541984733, -0.969465648855, -0.282442748092
0.14301204681396484,-0.749385119629, 3.09809694824, 9.18415756836, 30.9541984733, -0.969465648855, -0.282442748092
0.1437830924987793,-0.749385119629, 3.09809694824, 9.18415756836, 30.9541984733, -0.969465648855, -0.282442748092
0.14462900161743164,-0.749385119629, 3.09809694824, 9.18415756836, 30.9541984733, -0.969465648855, -0.282442748092
0.1454460620880127,-0.749385119629, 3.09809694824, 9.18415756836, 30.9541984733, -0.969465648855, -0.282442748092
0.14617705345153809,-0.749385119629, 3.09809694824, 9.18415756836, 30.9541984733, -0.969465648855, -0.282442748092
0.14693498611450195,-0.749385119629, 3.09809694824, 9.18415756836, 30.9541984733, -0.969465648855, -0.282442748092
0.1476750373840332,-0.749385119629, 3.09809694824, 9.18415756836, 30.9541984733, -0.969465648855, -0.282442748092
0.1485309600830078,-0.749385119629, 3.09809694824, 9.18415756836, 30.9541984733, -0.969465648855, -0.282442748092
0.16157007217407227,-0.749385119629, 3.09809694824, 9.18415756836, 30.9541984733, -0.969465648855, -0.282442748092
0.16378307342529297,-0.749385119629, 3.09809694824, 9.18415756836, 30.9541984733, -0.969465648855, -0.282442748092
0.1661989688873291,-0.749385119629, 3.09809694824, 9.18415756836, 30.9541984733, -0.969465648855, -0.282442748092
0.1678299903869629,-0.749385119629, 3.09809694824, 9.18415756836, 30.9541984733, -0.969465648855, -0.282442748092
0.16909408569335938,-0.749385119629, 3.09809694824, 9.18415756836, 30.9541984733, -0.969465648855, -0.282442748092
0.17037415504455566,-0.749385119629, 3.09809694824, 9.18415756836, 30.9541984733, -0.969465648855, -0.282442748092
0.17170310020446777,-0.749385119629, 3.09809694824, 9.18415756836, 30.9541984733, -0.969465648855, -0.282442748092
0.17323708534240723,-0.749385119629, 3.09809694824, 9.18415756836, 30.9541984733, -0.969465648855, -0.282442748092
0.17461204528808594,-0.749385119629, 3.09809694824, 9.18415756836, 30.9541984733, -0.969465648855, -0.282442748092
0.17607808113098145,-0.749385119629, 3.09809694824, 9.18415756836, 30.9541984733, -0.969465648855, -0.282442748092
0.17740416526794434,-0.749385119629, 3.09809694824, 9.18415756836, 30.9541984733, -0.969465648855, -0.282442748092
0.17856907844543457,-0.749385119629, 3.09809694824, 9.18415756836, 30.9541984733, -0.969465648855, -0.282442748092
0.17985010147094727,-0.749385119629, 3.09809694824, 9.18415756836, 30.9541984733, -0.969465648855, -0.282442748092
0.18140101432800293,-0.749385119629, 3.09809694824, 9.18415756836, 30.9541984733, -0.969465648855, -0.282442748092
0.18280911445617676,-0.749385119629, 3.09809694824, 9.18415756836, 30.9541984733, -0.969465648855, -0.282442748092
0.1844310760498047,-0.749385119629, 3.09809694824, 9.18415756836, 30.9541984733, -0.969465648855, -0.282442748092
0.1882181167602539,-0.749385119629, 3.09809694824, 9.18415756836, 30.9541984733, -0.969465648855, -0.282442748092
0.190324068069458,-0.749385119629, 3.09809694824, 9.18415756836, 30.9541984733, -0.969465648855, -0.282442748092
0.19286513328552246,-0.749385119629, 3.09809694824, 9.18415756836, 30.9541984733, -0.969465648855, -0.282442748092
0.19570112228393555,-0.749385119629, 3.09809694824, 9.18415756836, 30.9541984733, -0.969465648855, -0.282442748092
0.198868989944458,-0.749385119629, 3.09809694824, 9.18415756836, 30.9541984733, -0.969465648855, -0.282442748092
0.20032501220703125,-0.749385119629, 3.09809694824, 9.18415756836, 30.9541984733, -0.969465648855, -0.282442748092
0.20275497436523438,-0.749385119629, 3.09809694824, 9.18415756836, 30.9541984733, -0.969465648855, -0.282442748092
0.20452499389648438,-0.749385119629, 3.09809694824, 9.18415756836, 30.9541984733, -0.969465648855, -0.282442748092
0.20569610595703125,-0.749385119629, 3.09809694824, 9.18415756836, 30.9541984733, -0.969465648855, -0.282442748092
0.20691919326782227,-0.749385119629, 3.09809694824, 9.18415756836, 30.9541984733, -0.969465648855, -0.282442748092
0.20827198028564453,-0.749385119629, 3.09809694824, 9.18415756836, 30.9541984733, -0.969465648855, -0.282442748092
0.2096409797668457,-0.749385119629, 3.09809694824, 9.18415756836, 30.9541984733, -0.969465648855, -0.282442748092
0.21136999130249023,-0.749385119629, 3.09809694824, 9.18415756836, 30.9541984733, -0.969465648855, -0.282442748092
0.2126619815826416,-0.749385119629, 3.09809694824, 9.18415756836, 30.9541984733, -0.969465648855, -0.282442748092
0.21402716636657715,-0.749385119629, 3.09809694824, 9.18415756836, 30.9541984733, -0.969465648855, -0.282442748092
0.2157421112060547,-0.749385119629, 3.09809694824, 9.18415756836, 30.9541984733, -0.969465648855, -0.282442748092
0.21755504608154297,-0.749385119629, 3.09809694824, 9.18415756836, 30.9541984733, -0.969465648855, -0.282442748092
0.22261905670166016,-0.749385119629, 3.09809694824, 9.18415756836, 30.9541984733, -0.969465648855, -0.282442748092
0.22553706169128418,-0.703895288086, 3.19865341797, 8.89685336914, 31.0305343511, -1.08396946565, -0.152671755725
0.22855901718139648,-0.703895288086, 3.19865341797, 8.89685336914, 31.0305343511, -1.08396946565, -0.152671755725
0.23102498054504395,-0.703895288086, 3.19865341797, 8.89685336914, 31.0305343511, -1.08396946565, -0.152671755725
0.2324361801147461,-0.703895288086, 3.19865341797, 8.89685336914, 31.0305343511, -1.08396946565, -0.152671755725
0.23359203338623047,-0.703895288086, 3.19865341797, 8.89685336914, 31.0305343511, -1.08396946565, -0.152671755725
0.23490309715270996,-0.703895288086, 3.19865341797, 8.89685336914, 31.0305343511, -1.08396946565, -0.152671755725
0.23604798316955566,-0.703895288086, 3.19865341797, 8.89685336914, 31.0305343511, -1.08396946565, -0.152671755725
0.23741698265075684,-0.703895288086, 3.19865341797, 8.89685336914, 31.0305343511, -1.08396946565, -0.152671755725
0.2386021614074707,-0.703895288086, 3.19865341797, 8.89685336914, 31.0305343511, -1.08396946565, -0.152671755725
0.239760160446167,-0.703895288086, 3.19865341797, 8.89685336914, 31.0305343511, -1.08396946565, -0.152671755725
0.24126195907592773,-0.703895288086, 3.19865341797, 8.89685336914, 31.0305343511, -1.08396946565, -0.152671755725
0.24252605438232422,-0.703895288086, 3.19865341797, 8.89685336914, 31.0305343511, -1.08396946565, -0.152671755725
0.24372196197509766,-0.703895288086, 3.19865341797, 8.89685336914, 31.0305343511, -1.08396946565, -0.152671755725
0.24509501457214355,-0.703895288086, 3.19865341797, 8.89685336914, 31.0305343511, -1.08396946565, -0.152671755725
0.24667716026306152,-0.703895288086, 3.19865341797, 8.89685336914, 31.0305343511, -1.08396946565, -0.152671755725
0.24953603744506836,-0.703895288086, 3.19865341797, 8.89685336914, 31.0305343511, -1.08396946565, -0.152671755725
0.25118517875671387,-0.703895288086, 3.19865341797, 8.89685336914, 31.0305343511, -1.08396946565, -0.152671755725
0.25435614585876465,-0.703895288086, 3.19865341797, 8.89685336914, 31.0305343511, -1.08396946565, -0.152671755725
0.256335973739624,-0.703895288086, 3.19865341797, 8.89685336914, 31.0305343511, -1.08396946565, -0.152671755725
0.25819897651672363,-0.703895288086, 3.19865341797, 8.89685336914, 31.0305343511, -1.08396946565, -0.152671755725
0.259937047958374,-0.703895288086, 3.19865341797, 8.89685336914, 31.0305343511, -1.08396946565, -0.152671755725
0.26107311248779297,-0.703895288086, 3.19865341797, 8.89685336914, 31.0305343511, -1.08396946565, -0.152671755725
0.2620971202850342,-0.703895288086, 3.19865341797, 8.89685336914, 31.0305343511, -1.08396946565, -0.152671755725
0.2632420063018799,-0.703895288086, 3.19865341797, 8.89685336914, 31.0305343511, -1.08396946565, -0.152671755725
0.26416707038879395,-0.703895288086, 3.19865341797, 8.89685336914, 31.0305343511, -1.08396946565, -0.152671755725
0.2649810314178467,-0.703895288086, 3.19865341797, 8.89685336914, 31.0305343511, -1.08396946565, -0.152671755725
0.26636409759521484,-0.703895288086, 3.19865341797, 8.89685336914, 31.0305343511, -1.08396946565, -0.152671755725
0.2678511142730713,-0.703895288086, 3.19865341797, 8.89685336914, 31.0305343511, -1.08396946565, -0.152671755725
0.26881909370422363,-0.703895288086, 3.19865341797, 8.89685336914, 31.0305343511, -1.08396946565, -0.152671755725
0.2695891857147217,-0.703895288086, 3.19865341797, 8.89685336914, 31.0305343511, -1.08396946565, -0.152671755725
0.2703831195831299,-0.703895288086, 3.19865341797, 8.89685336914, 31.0305343511, -1.08396946565, -0.152671755725
0.2714080810546875,-0.703895288086, 3.19865341797, 8.89685336914, 31.0305343511, -1.08396946565, -0.152671755725
0.2722289562225342,-0.703895288086, 3.19865341797, 8.89685336914, 31.0305343511, -1.08396946565, -0.152671755725
0.27301907539367676,-0.703895288086, 3.19865341797, 8.89685336914, 31.0305343511, -1.08396946565, -0.152671755725
0.2738161087036133,-0.703895288086, 3.19865341797, 8.89685336914, 31.0305343511, -1.08396946565, -0.152671755725
0.2747461795806885,-0.703895288086, 3.19865341797, 8.89685336914, 31.0305343511, -1.08396946565, -0.152671755725
0.2760000228881836,-0.703895288086, 3.19865341797, 8.89685336914, 31.0305343511, -1.08396946565, -0.152671755725
0.27748703956604004,-0.703895288086, 3.19865341797, 8.89685336914, 31.0305343511, -1.08396946565, -0.152671755725
0.28131818771362305,-0.703895288086, 3.19865341797, 8.89685336914, 31.0305343511, -1.08396946565, -0.152671755725
0.28309106826782227,-0.703895288086, 3.19865341797, 8.89685336914, 31.0305343511, -1.08396946565, -0.152671755725
0.2850470542907715,-0.703895288086, 3.19865341797, 8.89685336914, 31.0305343511, -1.08396946565, -0.152671755725
0.287384033203125,-0.703895288086, 3.19865341797, 8.89685336914, 31.0305343511, -1.08396946565, -0.152671755725
0.28879213333129883,-0.703895288086, 3.19865341797, 8.89685336914, 31.0305343511, -1.08396946565, -0.152671755725
0.29021406173706055,-0.703895288086, 3.19865341797, 8.89685336914, 31.0305343511, -1.08396946565, -0.152671755725
0.2918281555175781,-0.703895288086, 3.19865341797, 8.89685336914, 31.0305343511, -1.08396946565, -0.152671755725
0.2933800220489502,-0.703895288086, 3.19865341797, 8.89685336914, 31.0305343511, -1.08396946565, -0.152671755725
0.29465603828430176,-0.703895288086, 3.19865341797, 8.89685336914, 31.0305343511, -1.08396946565, -0.152671755725
0.2957150936126709,-0.703895288086, 3.19865341797, 8.89685336914, 31.0305343511, -1.08396946565, -0.152671755725
0.29671597480773926,-0.703895288086, 3.19865341797, 8.89685336914, 31.0305343511, -1.08396946565, -0.152671755725
0.29780006408691406,-0.703895288086, 3.19865341797, 8.89685336914, 31.0305343511, -1.08396946565, -0.152671755725
0.2989540100097656,-0.703895288086, 3.19865341797, 8.89685336914, 31.0305343511, -1.08396946565, -0.152671755725
0.3007521629333496,-0.703895288086, 3.19865341797, 8.89685336914, 31.0305343511, -1.08396946565, -0.152671755725
0.3023960590362549,-0.703895288086, 3.19865341797, 8.89685336914, 31.0305343511, -1.08396946565, -0.152671755725
0.30385899543762207,-0.703895288086, 3.19865341797, 8.89685336914, 31.0305343511, -1.08396946565, -0.152671755725
0.3050529956817627,-0.703895288086, 3.19865341797, 8.89685336914, 31.0305343511, -1.08396946565, -0.152671755725
0.3063831329345703,-0.703895288086, 3.19865341797, 8.89685336914, 31.0305343511, -1.08396946565, -0.152671755725
0.3086421489715576,-0.703895288086, 3.19865341797, 8.89685336914, 31.0305343511, -1.08396946565, -0.152671755725
0.3103480339050293,-0.703895288086, 3.19865341797, 8.89685336914, 31.0305343511, -1.08396946565, -0.152671755725
0.3124830722808838,-0.703895288086, 3.19865341797, 8.89685336914, 31.0305343511, -1.08396946565, -0.152671755725
0.3140220642089844,-0.703895288086, 3.19865341797, 8.89685336914, 31.0305343511, -1.08396946565, -0.152671755725
0.3154301643371582,-0.703895288086, 3.19865341797, 8.89685336914, 31.0305343511, -1.08396946565, -0.152671755725
0.31769299507141113,-0.703895288086, 3.19865341797, 8.89685336914, 31.0305343511, -1.08396946565, -0.152671755725
0.3214070796966553,-0.703895288086, 3.19865341797, 8.89685336914, 31.0305343511, -1.08396946565, -0.152671755725
0.323944091796875,-0.703895288086, 3.19865341797, 8.89685336914, 31.0305343511, -1.08396946565, -0.152671755725
0.3269960880279541,-0.76375032959, 3.08133753662, 9.09317790527, 31.0534351145, -0.87786259542, -0.320610687023
0.3289451599121094,-0.76375032959, 3.08133753662, 9.09317790527, 31.0534351145, -0.87786259542, -0.320610687023
0.33039212226867676,-0.76375032959, 3.08133753662, 9.09317790527, 31.0534351145, -0.87786259542, -0.320610687023
0.3318440914154053,-0.76375032959, 3.08133753662, 9.09317790527, 31.0534351145, -0.87786259542, -0.320610687023
0.3332841396331787,-0.76375032959, 3.08133753662, 9.09317790527, 31.0534351145, -0.87786259542, -0.320610687023
0.33463501930236816,-0.76375032959, 3.08133753662, 9.09317790527, 31.0534351145, -0.87786259542, -0.320610687023
0.3359839916229248,-0.76375032959, 3.08133753662, 9.09317790527, 31.0534351145, -0.87786259542, -0.320610687023
0.33756303787231445,-0.76375032959, 3.08133753662, 9.09317790527, 31.0534351145, -0.87786259542, -0.320610687023
0.3389880657196045,-0.76375032959, 3.08133753662, 9.09317790527, 31.0534351145, -0.87786259542, -0.320610687023
0.34075403213500977,-0.76375032959, 3.08133753662, 9.09317790527, 31.0534351145, -0.87786259542, -0.320610687023
0.34343409538269043,-0.76375032959, 3.08133753662, 9.09317790527, 31.0534351145, -0.87786259542, -0.320610687023
0.3470489978790283,-0.76375032959, 3.08133753662, 9.09317790527, 31.0534351145, -0.87786259542, -0.320610687023
0.349682092666626,-0.76375032959, 3.08133753662, 9.09317790527, 31.0534351145, -0.87786259542, -0.320610687023
0.35221004486083984,-0.76375032959, 3.08133753662, 9.09317790527, 31.0534351145, -0.87786259542, -0.320610687023
0.35372400283813477,-0.76375032959, 3.08133753662, 9.09317790527, 31.0534351145, -0.87786259542, -0.320610687023
0.3550581932067871,-0.76375032959, 3.08133753662, 9.09317790527, 31.0534351145, -0.87786259542, -0.320610687023
0.3563230037689209,-0.76375032959, 3.08133753662, 9.09317790527, 31.0534351145, -0.87786259542, -0.320610687023
0.35837697982788086,-0.76375032959, 3.08133753662, 9.09317790527, 31.0534351145, -0.87786259542, -0.320610687023
0.3598921298980713,-0.76375032959, 3.08133753662, 9.09317790527, 31.0534351145, -0.87786259542, -0.320610687023
0.3614051342010498,-0.76375032959, 3.08133753662, 9.09317790527, 31.0534351145, -0.87786259542, -0.320610687023
0.36301302909851074,-0.76375032959, 3.08133753662, 9.09317790527, 31.0534351145, -0.87786259542, -0.320610687023
0.36423206329345703,-0.76375032959, 3.08133753662, 9.09317790527, 31.0534351145, -0.87786259542, -0.320610687023
0.36545896530151367,-0.76375032959, 3.08133753662, 9.09317790527, 31.0534351145, -0.87786259542, -0.320610687023
0.36716198921203613,-0.76375032959, 3.08133753662, 9.09317790527, 31.0534351145, -0.87786259542, -0.320610687023
0.3691079616546631,-0.76375032959, 3.08133753662, 9.09317790527, 31.0534351145, -0.87786259542, -0.320610687023
0.37288498878479004,-0.76375032959, 3.08133753662, 9.09317790527, 31.0534351145, -0.87786259542, -0.320610687023
0.3753530979156494,-0.76375032959, 3.08133753662, 9.09317790527, 31.0534351145, -0.87786259542, -0.320610687023
0.37804198265075684,-0.76375032959, 3.08133753662, 9.09317790527, 31.0534351145, -0.87786259542, -0.320610687023
0.3795931339263916,-0.76375032959, 3.08133753662, 9.09317790527, 31.0534351145, -0.87786259542, -0.320610687023
0.381256103515625,-0.76375032959, 3.08133753662, 9.09317790527, 31.0534351145, -0.87786259542, -0.320610687023
0.3826260566711426,-0.76375032959, 3.08133753662, 9.09317790527, 31.0534351145, -0.87786259542, -0.320610687023
0.3839900493621826,-0.76375032959, 3.08133753662, 9.09317790527, 31.0534351145, -0.87786259542, -0.320610687023
0.38526201248168945,-0.76375032959, 3.08133753662, 9.09317790527, 31.0534351145, -0.87786259542, -0.320610687023
0.38660407066345215,-0.76375032959, 3.08133753662, 9.09317790527, 31.0534351145, -0.87786259542, -0.320610687023
0.3882601261138916,-0.76375032959, 3.08133753662, 9.09317790527, 31.0534351145, -0.87786259542, -0.320610687023
0.38953614234924316,-0.76375032959, 3.08133753662, 9.09317790527, 31.0534351145, -0.87786259542, -0.320610687023
0.39157605171203613,-0.76375032959, 3.08133753662, 9.09317790527, 31.0534351145, -0.87786259542, -0.320610687023
0.3930041790008545,-0.76375032959, 3.08133753662, 9.09317790527, 31.0534351145, -0.87786259542, -0.320610687023
0.39400410652160645,-0.76375032959, 3.08133753662, 9.09317790527, 31.0534351145, -0.87786259542, -0.320610687023
0.3948521614074707,-0.76375032959, 3.08133753662, 9.09317790527, 31.0534351145, -0.87786259542, -0.320610687023
0.3957960605621338,-0.76375032959, 3.08133753662, 9.09317790527, 31.0534351145, -0.87786259542, -0.320610687023
0.3967759609222412,-0.76375032959, 3.08133753662, 9.09317790527, 31.0534351145, -0.87786259542, -0.320610687023
0.39801812171936035,-0.76375032959, 3.08133753662, 9.09317790527, 31.0534351145, -0.87786259542, -0.320610687023
0.4013049602508545,-0.76375032959, 3.08133753662, 9.09317790527, 31.0534351145, -0.87786259542, -0.320610687023
0.404742956161499,-0.76375032959, 3.08133753662, 9.09317790527, 31.0534351145, -0.87786259542, -0.320610687023
0.4065980911254883,-0.76375032959, 3.08133753662, 9.09317790527, 31.0534351145, -0.87786259542, -0.320610687023
0.4083280563354492,-0.76375032959, 3.08133753662, 9.09317790527, 31.0534351145, -0.87786259542, -0.320610687023
0.4099280834197998,-0.76375032959, 3.08133753662, 9.09317790527, 31.0534351145, -0.87786259542, -0.320610687023
0.41120100021362305,-0.76375032959, 3.08133753662, 9.09317790527, 31.0534351145, -0.87786259542, -0.320610687023
0.4122440814971924,-0.76375032959, 3.08133753662, 9.09317790527, 31.0534351145, -0.87786259542, -0.320610687023
0.4131901264190674,-0.76375032959, 3.08133753662, 9.09317790527, 31.0534351145, -0.87786259542, -0.320610687023
0.41411399841308594,-0.76375032959, 3.08133753662, 9.09317790527, 31.0534351145, -0.87786259542, -0.320610687023
0.41541218757629395,-0.76375032959, 3.08133753662, 9.09317790527, 31.0534351145, -0.87786259542, -0.320610687023
0.417816162109375,-0.76375032959, 3.08133753662, 9.09317790527, 31.0534351145, -0.87786259542, -0.320610687023
0.4194021224975586,-0.76375032959, 3.08133753662, 9.09317790527, 31.0534351145, -0.87786259542, -0.320610687023
0.4206840991973877,-0.76375032959, 3.08133753662, 9.09317790527, 31.0534351145, -0.87786259542, -0.320610687023
0.4221811294555664,-0.76375032959, 3.08133753662, 9.09317790527, 31.0534351145, -0.87786259542, -0.320610687023
0.4236021041870117,-0.76375032959, 3.08133753662, 9.09317790527, 31.0534351145, -0.87786259542, -0.320610687023
0.4247431755065918,-0.76375032959, 3.08133753662, 9.09317790527, 31.0534351145, -0.87786259542, -0.320610687023
0.42577099800109863,-0.76375032959, 3.08133753662, 9.09317790527, 31.0534351145, -0.87786259542, -0.320610687023
0.42677807807922363,-0.76375032959, 3.08133753662, 9.09317790527, 31.0534351145, -0.87786259542, -0.320610687023
0.4277801513671875,-0.76375032959, 3.08133753662, 9.09317790527, 31.0534351145, -0.87786259542, -0.320610687023
0.4286010265350342,-0.76375032959, 3.08133753662, 9.09317790527, 31.0534351145, -0.87786259542, -0.320610687023
0.4294881820678711,-0.76375032959, 3.08133753662, 9.09317790527, 31.0534351145, -0.87786259542, -0.320610687023
0.4316389560699463,-0.708683691406, 3.11485635986, 9.03332286377, 31.1374045802, -1.01526717557, -0.137404580153
0.4331471920013428,-0.708683691406, 3.11485635986, 9.03332286377, 31.1374045802, -1.01526717557, -0.137404580153
0.434628963470459,-0.708683691406, 3.11485635986, 9.03332286377, 31.1374045802, -1.01526717557, -0.137404580153
0.43578004837036133,-0.708683691406, 3.11485635986, 9.03332286377, 31.1374045802, -1.01526717557, -0.137404580153
0.4367649555206299,-0.708683691406, 3.11485635986, 9.03332286377, 31.1374045802, -1.01526717557, -0.137404580153
0.4375879764556885,-0.708683691406, 3.11485635986, 9.03332286377, 31.1374045802, -1.01526717557, -0.137404580153
0.4384770393371582,-0.708683691406, 3.11485635986, 9.03332286377, 31.1374045802, -1.01526717557, -0.137404580153
0.43993616104125977,-0.708683691406, 3.11485635986, 9.03332286377, 31.1374045802, -1.01526717557, -0.137404580153
0.44182610511779785,-0.708683691406, 3.11485635986, 9.03332286377, 31.1374045802, -1.01526717557, -0.137404580153
0.4436531066894531,-0.708683691406, 3.11485635986, 9.03332286377, 31.1374045802, -1.01526717557, -0.137404580153
0.44535207748413086,-0.708683691406, 3.11485635986, 9.03332286377, 31.1374045802, -1.01526717557, -0.137404580153
0.44711804389953613,-0.708683691406, 3.11485635986, 9.03332286377, 31.1374045802, -1.01526717557, -0.137404580153
0.4488050937652588,-0.708683691406, 3.11485635986, 9.03332286377, 31.1374045802, -1.01526717557, -0.137404580153
0.4523770809173584,-0.708683691406, 3.11485635986, 9.03332286377, 31.1374045802, -1.01526717557, -0.137404580153
0.45476698875427246,-0.708683691406, 3.11485635986, 9.03332286377, 31.1374045802, -1.01526717557, -0.137404580153
0.45653200149536133,-0.708683691406, 3.11485635986, 9.03332286377, 31.1374045802, -1.01526717557, -0.137404580153
0.4588019847869873,-0.708683691406, 3.11485635986, 9.03332286377, 31.1374045802, -1.01526717557, -0.137404580153
0.46136999130249023,-0.708683691406, 3.11485635986, 9.03332286377, 31.1374045802, -1.01526717557, -0.137404580153
0.46279311180114746,-0.708683691406, 3.11485635986, 9.03332286377, 31.1374045802, -1.01526717557, -0.137404580153
0.46442413330078125,-0.708683691406, 3.11485635986, 9.03332286377, 31.1374045802, -1.01526717557, -0.137404580153
0.46579813957214355,-0.708683691406, 3.11485635986, 9.03332286377, 31.1374045802, -1.01526717557, -0.137404580153
0.4672060012817383,-0.708683691406, 3.11485635986, 9.03332286377, 31.1374045802, -1.01526717557, -0.137404580153
0.46892714500427246,-0.708683691406, 3.11485635986, 9.03332286377, 31.1374045802, -1.01526717557, -0.137404580153
0.473438024520874,-0.708683691406, 3.11485635986, 9.03332286377, 31.1374045802, -1.01526717557, -0.137404580153
0.4763221740722656,-0.708683691406, 3.11485635986, 9.03332286377, 31.1374045802, -1.01526717557, -0.137404580153
0.47884607315063477,-0.708683691406, 3.11485635986, 9.03332286377, 31.1374045802, -1.01526717557, -0.137404580153
0.48119115829467773,-0.708683691406, 3.11485635986, 9.03332286377, 31.1374045802, -1.01526717557, -0.137404580153
0.48307108879089355,-0.708683691406, 3.11485635986, 9.03332286377, 31.1374045802, -1.01526717557, -0.137404580153
0.48493409156799316,-0.708683691406, 3.11485635986, 9.03332286377, 31.1374045802, -1.01526717557, -0.137404580153
0.4864630699157715,-0.708683691406, 3.11485635986, 9.03332286377, 31.1374045802, -1.01526717557, -0.137404580153
0.4880390167236328,-0.708683691406, 3.11485635986, 9.03332286377, 31.1374045802, -1.01526717557, -0.137404580153
0.4892599582672119,-0.708683691406, 3.11485635986, 9.03332286377, 31.1374045802, -1.01526717557, -0.137404580153
0.49057817459106445,-0.708683691406, 3.11485635986, 9.03332286377, 31.1374045802, -1.01526717557, -0.137404580153
0.4921879768371582,-0.708683691406, 3.11485635986, 9.03332286377, 31.1374045802, -1.01526717557, -0.137404580153
0.4937100410461426,-0.708683691406, 3.11485635986, 9.03332286377, 31.1374045802, -1.01526717557, -0.137404580153
0.4970409870147705,-0.708683691406, 3.11485635986, 9.03332286377, 31.1374045802, -1.01526717557, -0.137404580153
0.49836015701293945,-0.708683691406, 3.11485635986, 9.03332286377, 31.1374045802, -1.01526717557, -0.137404580153
0.4995450973510742,-0.708683691406, 3.11485635986, 9.03332286377, 31.1374045802, -1.01526717557, -0.137404580153
0.5013401508331299,-0.708683691406, 3.11485635986, 9.03332286377, 31.1374045802, -1.01526717557, -0.137404580153
0.5030250549316406,-0.708683691406, 3.11485635986, 9.03332286377, 31.1374045802, -1.01526717557, -0.137404580153
0.5048611164093018,-0.708683691406, 3.11485635986, 9.03332286377, 31.1374045802, -1.01526717557, -0.137404580153
0.509660005569458,-0.708683691406, 3.11485635986, 9.03332286377, 31.1374045802, -1.01526717557, -0.137404580153
0.5116701126098633,-0.708683691406, 3.11485635986, 9.03332286377, 31.1374045802, -1.01526717557, -0.137404580153
0.5136921405792236,-0.708683691406, 3.11485635986, 9.03332286377, 31.1374045802, -1.01526717557, -0.137404580153
0.5153059959411621,-0.708683691406, 3.11485635986, 9.03332286377, 31.1374045802, -1.01526717557, -0.137404580153
0.5164811611175537,-0.708683691406, 3.11485635986, 9.03332286377, 31.1374045802, -1.01526717557, -0.137404580153
0.5188331604003906,-0.708683691406, 3.11485635986, 9.03332286377, 31.1374045802, -1.01526717557, -0.137404580153
0.5198609828948975,-0.708683691406, 3.11485635986, 9.03332286377, 31.1374045802, -1.01526717557, -0.137404580153
0.5210220813751221,-0.708683691406, 3.11485635986, 9.03332286377, 31.1374045802, -1.01526717557, -0.137404580153
0.5221390724182129,-0.708683691406, 3.11485635986, 9.03332286377, 31.1374045802, -1.01526717557, -0.137404580153
0.5244920253753662,-0.711077893066, 3.06936652832, 9.05247647705, 30.8778625954, -1.10687022901, -0.335877862595
0.5258171558380127,-0.711077893066, 3.06936652832, 9.05247647705, 30.8778625954, -1.10687022901, -0.335877862595
0.5274250507354736,-0.711077893066, 3.06936652832, 9.05247647705, 30.8778625954, -1.10687022901, -0.335877862595
0.5284340381622314,-0.711077893066, 3.06936652832, 9.05247647705, 30.8778625954, -1.10687022901, -0.335877862595
0.5294990539550781,-0.711077893066, 3.06936652832, 9.05247647705, 30.8778625954, -1.10687022901, -0.335877862595
0.5307941436767578,-0.711077893066, 3.06936652832, 9.05247647705, 30.8778625954, -1.10687022901, -0.335877862595
0.5324440002441406,-0.711077893066, 3.06936652832, 9.05247647705, 30.8778625954, -1.10687022901, -0.335877862595
0.5339560508728027,-0.711077893066, 3.06936652832, 9.05247647705, 30.8778625954, -1.10687022901, -0.335877862595
0.5379650592803955,-0.711077893066, 3.06936652832, 9.05247647705, 30.8778625954, -1.10687022901, -0.335877862595
0.5399131774902344,-0.711077893066, 3.06936652832, 9.05247647705, 30.8778625954, -1.10687022901, -0.335877862595
0.5425820350646973,-0.711077893066, 3.06936652832, 9.05247647705, 30.8778625954, -1.10687022901, -0.335877862595
0.5443730354309082,-0.711077893066, 3.06936652832, 9.05247647705, 30.8778625954, -1.10687022901, -0.335877862595
0.5459330081939697,-0.711077893066, 3.06936652832, 9.05247647705, 30.8778625954, -1.10687022901, -0.335877862595
0.5473060607910156,-0.711077893066, 3.06936652832, 9.05247647705, 30.8778625954, -1.10687022901, -0.335877862595
0.548638105392456,-0.711077893066, 3.06936652832, 9.05247647705, 30.8778625954, -1.10687022901, -0.335877862595
0.5502409934997559,-0.711077893066, 3.06936652832, 9.05247647705, 30.8778625954, -1.10687022901, -0.335877862595
0.5517799854278564,-0.711077893066, 3.06936652832, 9.05247647705, 30.8778625954, -1.10687022901, -0.335877862595
0.5533421039581299,-0.711077893066, 3.06936652832, 9.05247647705, 30.8778625954, -1.10687022901, -0.335877862595
0.5549499988555908,-0.711077893066, 3.06936652832, 9.05247647705, 30.8778625954, -1.10687022901, -0.335877862595
0.5564250946044922,-0.711077893066, 3.06936652832, 9.05247647705, 30.8778625954, -1.10687022901, -0.335877862595
0.5577220916748047,-0.711077893066, 3.06936652832, 9.05247647705, 30.8778625954, -1.10687022901, -0.335877862595
0.5592761039733887,-0.711077893066, 3.06936652832, 9.05247647705, 30.8778625954, -1.10687022901, -0.335877862595
0.5610730648040771,-0.711077893066, 3.06936652832, 9.05247647705, 30.8778625954, -1.10687022901, -0.335877862595
0.5625820159912109,-0.711077893066, 3.06936652832, 9.05247647705, 30.8778625954, -1.10687022901, -0.335877862595
0.5642681121826172,-0.711077893066, 3.06936652832, 9.05247647705, 30.8778625954, -1.10687022901, -0.335877862595
0.5674819946289062,-0.711077893066, 3.06936652832, 9.05247647705, 30.8778625954, -1.10687022901, -0.335877862595
0.5701510906219482,-0.711077893066, 3.06936652832, 9.05247647705, 30.8778625954, -1.10687022901, -0.335877862595
0.5725181102752686,-0.711077893066, 3.06936652832, 9.05247647705, 30.8778625954, -1.10687022901, -0.335877862595
0.5741209983825684,-0.711077893066, 3.06936652832, 9.05247647705, 30.8778625954, -1.10687022901, -0.335877862595
0.5754721164703369,-0.711077893066, 3.06936652832, 9.05247647705, 30.8778625954, -1.10687022901, -0.335877862595
0.576850175857544,-0.711077893066, 3.06936652832, 9.05247647705, 30.8778625954, -1.10687022901, -0.335877862595
0.5782561302185059,-0.711077893066, 3.06936652832, 9.05247647705, 30.8778625954, -1.10687022901, -0.335877862595
0.5796341896057129,-0.711077893066, 3.06936652832, 9.05247647705, 30.8778625954, -1.10687022901, -0.335877862595
0.5812740325927734,-0.711077893066, 3.06936652832, 9.05247647705, 30.8778625954, -1.10687022901, -0.335877862595
0.5850741863250732,-0.711077893066, 3.06936652832, 9.05247647705, 30.8778625954, -1.10687022901, -0.335877862595
0.5865511894226074,-0.711077893066, 3.06936652832, 9.05247647705, 30.8778625954, -1.10687022901, -0.335877862595
0.5880591869354248,-0.711077893066, 3.06936652832, 9.05247647705, 30.8778625954, -1.10687022901, -0.335877862595
0.5893759727478027,-0.711077893066, 3.06936652832, 9.05247647705, 30.8778625954, -1.10687022901, -0.335877862595
0.5911321640014648,-0.711077893066, 3.06936652832, 9.05247647705, 30.8778625954, -1.10687022901, -0.335877862595
0.5968291759490967,-0.711077893066, 3.06936652832, 9.05247647705, 30.8778625954, -1.10687022901, -0.335877862595
0.5995030403137207,-0.711077893066, 3.06936652832, 9.05247647705, 30.8778625954, -1.10687022901, -0.335877862595
0.6023859977722168,-0.711077893066, 3.06936652832, 9.05247647705, 30.8778625954, -1.10687022901, -0.335877862595
0.6045529842376709,-0.711077893066, 3.06936652832, 9.05247647705, 30.8778625954, -1.10687022901, -0.335877862595
0.6059260368347168,-0.711077893066, 3.06936652832, 9.05247647705, 30.8778625954, -1.10687022901, -0.335877862595
0.6072821617126465,-0.711077893066, 3.06936652832, 9.05247647705, 30.8778625954, -1.10687022901, -0.335877862595
0.6086370944976807,-0.711077893066, 3.06936652832, 9.05247647705, 30.8778625954, -1.10687022901, -0.335877862595
0.6100211143493652,-0.711077893066, 3.06936652832, 9.05247647705, 30.8778625954, -1.10687022901, -0.335877862595
0.6115481853485107,-0.711077893066, 3.06936652832, 9.05247647705, 30.8778625954, -1.10687022901, -0.335877862595
0.6132841110229492,-0.711077893066, 3.06936652832, 9.05247647705, 30.8778625954, -1.10687022901, -0.335877862595
0.6152420043945312,-0.711077893066, 3.06936652832, 9.05247647705, 30.8778625954, -1.10687022901, -0.335877862595
0.6186001300811768,-0.711077893066, 3.06936652832, 9.05247647705, 30.8778625954, -1.10687022901, -0.335877862595
0.6201050281524658,-0.711077893066, 3.06936652832, 9.05247647705, 30.8778625954, -1.10687022901, -0.335877862595
0.6218280792236328,-0.711077893066, 3.06936652832, 9.05247647705, 30.8778625954, -1.10687022901, -0.335877862595
0.6260931491851807,-0.742202514648, 3.02627089844, 9.08120689697, 30.9847328244, -1.01526717557, -0.18320610687
0.6285800933837891,-0.742202514648, 3.02627089844, 9.08120689697, 30.9847328244, -1.01526717557, -0.18320610687
0.6325950622558594,-0.742202514648, 3.02627089844, 9.08120689697, 30.9847328244, -1.01526717557, -0.18320610687
0.6349191665649414,-0.742202514648, 3.02627089844, 9.08120689697, 30.9847328244, -1.01526717557, -0.18320610687
0.6371240615844727,-0.742202514648, 3.02627089844, 9.08120689697, 30.9847328244, -1.01526717557, -0.18320610687
0.6393301486968994,-0.742202514648, 3.02627089844, 9.08120689697, 30.9847328244, -1.01526717557, -0.18320610687
0.6409339904785156,-0.742202514648, 3.02627089844, 9.08120689697, 30.9847328244, -1.01526717557, -0.18320610687
0.6424481868743896,-0.742202514648, 3.02627089844, 9.08120689697, 30.9847328244, -1.01526717557, -0.18320610687
0.6439690589904785,-0.742202514648, 3.02627089844, 9.08120689697, 30.9847328244, -1.01526717557, -0.18320610687
0.6455709934234619,-0.742202514648, 3.02627089844, 9.08120689697, 30.9847328244, -1.01526717557, -0.18320610687
0.6470241546630859,-0.742202514648, 3.02627089844, 9.08120689697, 30.9847328244, -1.01526717557, -0.18320610687
0.6484131813049316,-0.742202514648, 3.02627089844, 9.08120689697, 30.9847328244, -1.01526717557, -0.18320610687
0.650454044342041,-0.742202514648, 3.02627089844, 9.08120689697, 30.9847328244, -1.01526717557, -0.18320610687
0.6520459651947021,-0.742202514648, 3.02627089844, 9.08120689697, 30.9847328244, -1.01526717557, -0.18320610687
0.6532611846923828,-0.742202514648, 3.02627089844, 9.08120689697, 30.9847328244, -1.01526717557, -0.18320610687
0.6545381546020508,-0.742202514648, 3.02627089844, 9.08120689697, 30.9847328244, -1.01526717557, -0.18320610687
0.655980110168457,-0.742202514648, 3.02627089844, 9.08120689697, 30.9847328244, -1.01526717557, -0.18320610687
0.6574451923370361,-0.742202514648, 3.02627089844, 9.08120689697, 30.9847328244, -1.01526717557, -0.18320610687
0.661506175994873,-0.742202514648, 3.02627089844, 9.08120689697, 30.9847328244, -1.01526717557, -0.18320610687
0.6639750003814697,-0.742202514648, 3.02627089844, 9.08120689697, 30.9847328244, -1.01526717557, -0.18320610687
0.6661269664764404,-0.742202514648, 3.02627089844, 9.08120689697, 30.9847328244, -1.01526717557, -0.18320610687
0.6678650379180908,-0.742202514648, 3.02627089844, 9.08120689697, 30.9847328244, -1.01526717557, -0.18320610687
0.6688899993896484,-0.742202514648, 3.02627089844, 9.08120689697, 30.9847328244, -1.01526717557, -0.18320610687
0.6699080467224121,-0.742202514648, 3.02627089844, 9.08120689697, 30.9847328244, -1.01526717557, -0.18320610687
0.6710641384124756,-0.742202514648, 3.02627089844, 9.08120689697, 30.9847328244, -1.01526717557, -0.18320610687
0.6722090244293213,-0.742202514648, 3.02627089844, 9.08120689697, 30.9847328244, -1.01526717557, -0.18320610687
0.6739730834960938,-0.742202514648, 3.02627089844, 9.08120689697, 30.9847328244, -1.01526717557, -0.18320610687
0.6755411624908447,-0.742202514648, 3.02627089844, 9.08120689697, 30.9847328244, -1.01526717557, -0.18320610687
0.6769530773162842,-0.742202514648, 3.02627089844, 9.08120689697, 30.9847328244, -1.01526717557, -0.18320610687
0.678368091583252,-0.742202514648, 3.02627089844, 9.08120689697, 30.9847328244, -1.01526717557, -0.18320610687
0.6800341606140137,-0.742202514648, 3.02627089844, 9.08120689697, 30.9847328244, -1.01526717557, -0.18320610687
0.681926965713501,-0.742202514648, 3.02627089844, 9.08120689697, 30.9847328244, -1.01526717557, -0.18320610687
0.6835181713104248,-0.742202514648, 3.02627089844, 9.08120689697, 30.9847328244, -1.01526717557, -0.18320610687
0.685189962387085,-0.742202514648, 3.02627089844, 9.08120689697, 30.9847328244, -1.01526717557, -0.18320610687
0.687075138092041,-0.742202514648, 3.02627089844, 9.08120689697, 30.9847328244, -1.01526717557, -0.18320610687
0.6907460689544678,-0.742202514648, 3.02627089844, 9.08120689697, 30.9847328244, -1.01526717557, -0.18320610687
0.6933720111846924,-0.742202514648, 3.02627089844, 9.08120689697, 30.9847328244, -1.01526717557, -0.18320610687
0.6959161758422852,-0.742202514648, 3.02627089844, 9.08120689697, 30.9847328244, -1.01526717557, -0.18320610687
0.6980071067810059,-0.742202514648, 3.02627089844, 9.08120689697, 30.9847328244, -1.01526717557, -0.18320610687
0.7018539905548096,-0.742202514648, 3.02627089844, 9.08120689697, 30.9847328244, -1.01526717557, -0.18320610687
0.7034521102905273,-0.742202514648, 3.02627089844, 9.08120689697, 30.9847328244, -1.01526717557, -0.18320610687
0.7049040794372559,-0.742202514648, 3.02627089844, 9.08120689697, 30.9847328244, -1.01526717557, -0.18320610687
0.7064580917358398,-0.742202514648, 3.02627089844, 9.08120689697, 30.9847328244, -1.01526717557, -0.18320610687
0.7079410552978516,-0.742202514648, 3.02627089844, 9.08120689697, 30.9847328244, -1.01526717557, -0.18320610687
0.7096121311187744,-0.742202514648, 3.02627089844, 9.08120689697, 30.9847328244, -1.01526717557, -0.18320610687
0.7113959789276123,-0.742202514648, 3.02627089844, 9.08120689697, 30.9847328244, -1.01526717557, -0.18320610687
0.712846040725708,-0.742202514648, 3.02627089844, 9.08120689697, 30.9847328244, -1.01526717557, -0.18320610687
0.7144801616668701,-0.742202514648, 3.02627089844, 9.08120689697, 30.9847328244, -1.01526717557, -0.18320610687
0.7180180549621582,-0.742202514648, 3.02627089844, 9.08120689697, 30.9847328244, -1.01526717557, -0.18320610687
0.7199180126190186,-0.742202514648, 3.02627089844, 9.08120689697, 30.9847328244, -1.01526717557, -0.18320610687
0.7236921787261963,-0.742202514648, 3.02627089844, 9.08120689697, 30.9847328244, -1.01526717557, -0.18320610687
0.7275991439819336,-0.684741674805, 3.06697232666, 9.1458503418, 30.9923664122, -0.984732824427, -0.221374045802
0.7297971248626709,-0.684741674805, 3.06697232666, 9.1458503418, 30.9923664122, -0.984732824427, -0.221374045802
0.732457160949707,-0.684741674805, 3.06697232666, 9.1458503418, 30.9923664122, -0.984732824427, -0.221374045802
0.7345609664916992,-0.684741674805, 3.06697232666, 9.1458503418, 30.9923664122, -0.984732824427, -0.221374045802
0.735910177230835,-0.684741674805, 3.06697232666, 9.1458503418, 30.9923664122, -0.984732824427, -0.221374045802
0.7375631332397461,-0.684741674805, 3.06697232666, 9.1458503418, 30.9923664122, -0.984732824427, -0.221374045802
0.7388801574707031,-0.684741674805, 3.06697232666, 9.1458503418, 30.9923664122, -0.984732824427, -0.221374045802
0.7401471138000488,-0.684741674805, 3.06697232666, 9.1458503418, 30.9923664122, -0.984732824427, -0.221374045802
0.7419869899749756,-0.684741674805, 3.06697232666, 9.1458503418, 30.9923664122, -0.984732824427, -0.221374045802
0.7437310218811035,-0.684741674805, 3.06697232666, 9.1458503418, 30.9923664122, -0.984732824427, -0.221374045802
0.7453210353851318,-0.684741674805, 3.06697232666, 9.1458503418, 30.9923664122, -0.984732824427, -0.221374045802
0.7468881607055664,-0.684741674805, 3.06697232666, 9.1458503418, 30.9923664122, -0.984732824427, -0.221374045802
0.7484800815582275,-0.684741674805, 3.06697232666, 9.1458503418, 30.9923664122, -0.984732824427, -0.221374045802
0.7501959800720215,-0.684741674805, 3.06697232666, 9.1458503418, 30.9923664122, -0.984732824427, -0.221374045802
0.7519409656524658,-0.684741674805, 3.06697232666, 9.1458503418, 30.9923664122, -0.984732824427, -0.221374045802
0.7547171115875244,-0.684741674805, 3.06697232666, 9.1458503418, 30.9923664122, -0.984732824427, -0.221374045802
0.7582230567932129,-0.684741674805, 3.06697232666, 9.1458503418, 30.9923664122, -0.984732824427, -0.221374045802
0.7621259689331055,-0.684741674805, 3.06697232666, 9.1458503418, 30.9923664122, -0.984732824427, -0.221374045802
0.7642390727996826,-0.684741674805, 3.06697232666, 9.1458503418, 30.9923664122, -0.984732824427, -0.221374045802
0.7656381130218506,-0.684741674805, 3.06697232666, 9.1458503418, 30.9923664122, -0.984732824427, -0.221374045802
0.7666530609130859,-0.684741674805, 3.06697232666, 9.1458503418, 30.9923664122, -0.984732824427, -0.221374045802
0.7676169872283936,-0.684741674805, 3.06697232666, 9.1458503418, 30.9923664122, -0.984732824427, -0.221374045802
0.7687151432037354,-0.684741674805, 3.06697232666, 9.1458503418, 30.9923664122, -0.984732824427, -0.221374045802
0.769766092300415,-0.684741674805, 3.06697232666, 9.1458503418, 30.9923664122, -0.984732824427, -0.221374045802
0.770747184753418,-0.684741674805, 3.06697232666, 9.1458503418, 30.9923664122, -0.984732824427, -0.221374045802
0.7720050811767578,-0.684741674805, 3.06697232666, 9.1458503418, 30.9923664122, -0.984732824427, -0.221374045802
0.7734510898590088,-0.684741674805, 3.06697232666, 9.1458503418, 30.9923664122, -0.984732824427, -0.221374045802
0.7743539810180664,-0.684741674805, 3.06697232666, 9.1458503418, 30.9923664122, -0.984732824427, -0.221374045802
0.775562047958374,-0.684741674805, 3.06697232666, 9.1458503418, 30.9923664122, -0.984732824427, -0.221374045802
0.7772331237792969,-0.684741674805, 3.06697232666, 9.1458503418, 30.9923664122, -0.984732824427, -0.221374045802
0.7790629863739014,-0.684741674805, 3.06697232666, 9.1458503418, 30.9923664122, -0.984732824427, -0.221374045802
0.7807111740112305,-0.684741674805, 3.06697232666, 9.1458503418, 30.9923664122, -0.984732824427, -0.221374045802
0.782310962677002,-0.684741674805, 3.06697232666, 9.1458503418, 30.9923664122, -0.984732824427, -0.221374045802
0.7836301326751709,-0.684741674805, 3.06697232666, 9.1458503418, 30.9923664122, -0.984732824427, -0.221374045802
0.7860031127929688,-0.684741674805, 3.06697232666, 9.1458503418, 30.9923664122, -0.984732824427, -0.221374045802
0.7899231910705566,-0.684741674805, 3.06697232666, 9.1458503418, 30.9923664122, -0.984732824427, -0.221374045802
0.7929890155792236,-0.684741674805, 3.06697232666, 9.1458503418, 30.9923664122, -0.984732824427, -0.221374045802
0.7949471473693848,-0.684741674805, 3.06697232666, 9.1458503418, 30.9923664122, -0.984732824427, -0.221374045802
0.7966389656066895,-0.684741674805, 3.06697232666, 9.1458503418, 30.9923664122, -0.984732824427, -0.221374045802
0.7982680797576904,-0.684741674805, 3.06697232666, 9.1458503418, 30.9923664122, -0.984732824427, -0.221374045802
0.8018491268157959,-0.684741674805, 3.06697232666, 9.1458503418, 30.9923664122, -0.984732824427, -0.221374045802
0.8030190467834473,-0.684741674805, 3.06697232666, 9.1458503418, 30.9923664122, -0.984732824427, -0.221374045802
0.8045241832733154,-0.684741674805, 3.06697232666, 9.1458503418, 30.9923664122, -0.984732824427, -0.221374045802
0.8055710792541504,-0.684741674805, 3.06697232666, 9.1458503418, 30.9923664122, -0.984732824427, -0.221374045802
0.8067710399627686,-0.684741674805, 3.06697232666, 9.1458503418, 30.9923664122, -0.984732824427, -0.221374045802
0.8083250522613525,-0.684741674805, 3.06697232666, 9.1458503418, 30.9923664122, -0.984732824427, -0.221374045802
0.8103389739990234,-0.684741674805, 3.06697232666, 9.1458503418, 30.9923664122, -0.984732824427, -0.221374045802
0.8124411106109619,-0.684741674805, 3.06697232666, 9.1458503418, 30.9923664122, -0.984732824427, -0.221374045802
0.8160490989685059,-0.684741674805, 3.06697232666, 9.1458503418, 30.9923664122, -0.984732824427, -0.221374045802
0.8204660415649414,-0.684741674805, 3.06697232666, 9.1458503418, 30.9923664122, -0.984732824427, -0.221374045802
0.8230540752410889,-0.684741674805, 3.06697232666, 9.1458503418, 30.9923664122, -0.984732824427, -0.221374045802
0.8273730278015137,-0.701501086426, 3.19865341797, 9.06205328369, 30.9312977099, -1.09923664122, -0.167938931298
0.8290071487426758,-0.701501086426, 3.19865341797, 9.06205328369, 30.9312977099, -1.09923664122, -0.167938931298
0.830517053604126,-0.701501086426, 3.19865341797, 9.06205328369, 30.9312977099, -1.09923664122, -0.167938931298
0.832456111907959,-0.701501086426, 3.19865341797, 9.06205328369, 30.9312977099, -1.09923664122, -0.167938931298
0.8339860439300537,-0.701501086426, 3.19865341797, 9.06205328369, 30.9312977099, -1.09923664122, -0.167938931298
0.8356571197509766,-0.701501086426, 3.19865341797, 9.06205328369, 30.9312977099, -1.09923664122, -0.167938931298
0.837083101272583,-0.701501086426, 3.19865341797, 9.06205328369, 30.9312977099, -1.09923664122, -0.167938931298
0.838608980178833,-0.701501086426, 3.19865341797, 9.06205328369, 30.9312977099, -1.09923664122, -0.167938931298
0.8404221534729004,-0.701501086426, 3.19865341797, 9.06205328369, 30.9312977099, -1.09923664122, -0.167938931298
0.8425099849700928,-0.701501086426, 3.19865341797, 9.06205328369, 30.9312977099, -1.09923664122, -0.167938931298
0.844689130783081,-0.701501086426, 3.19865341797, 9.06205328369, 30.9312977099, -1.09923664122, -0.167938931298
0.8483860492706299,-0.701501086426, 3.19865341797, 9.06205328369, 30.9312977099, -1.09923664122, -0.167938931298
0.8511581420898438,-0.701501086426, 3.19865341797, 9.06205328369, 30.9312977099, -1.09923664122, -0.167938931298
0.854525089263916,-0.701501086426, 3.19865341797, 9.06205328369, 30.9312977099, -1.09923664122, -0.167938931298
0.8562750816345215,-0.701501086426, 3.19865341797, 9.06205328369, 30.9312977099, -1.09923664122, -0.167938931298
0.8577001094818115,-0.701501086426, 3.19865341797, 9.06205328369, 30.9312977099, -1.09923664122, -0.167938931298
0.8591601848602295,-0.701501086426, 3.19865341797, 9.06205328369, 30.9312977099, -1.09923664122, -0.167938931298
0.860741138458252,-0.701501086426, 3.19865341797, 9.06205328369, 30.9312977099, -1.09923664122, -0.167938931298
0.8628990650177002,-0.701501086426, 3.19865341797, 9.06205328369, 30.9312977099, -1.09923664122, -0.167938931298
0.8646371364593506,-0.701501086426, 3.19865341797, 9.06205328369, 30.9312977099, -1.09923664122, -0.167938931298
0.8659851551055908,-0.701501086426, 3.19865341797, 9.06205328369, 30.9312977099, -1.09923664122, -0.167938931298
0.8674240112304688,-0.701501086426, 3.19865341797, 9.06205328369, 30.9312977099, -1.09923664122, -0.167938931298
0.8693821430206299,-0.701501086426, 3.19865341797, 9.06205328369, 30.9312977099, -1.09923664122, -0.167938931298
0.8715121746063232,-0.701501086426, 3.19865341797, 9.06205328369, 30.9312977099, -1.09923664122, -0.167938931298
0.8752861022949219,-0.701501086426, 3.19865341797, 9.06205328369, 30.9312977099, -1.09923664122, -0.167938931298
0.8777120113372803,-0.701501086426, 3.19865341797, 9.06205328369, 30.9312977099, -1.09923664122, -0.167938931298
0.8801071643829346,-0.701501086426, 3.19865341797, 9.06205328369, 30.9312977099, -1.09923664122, -0.167938931298
0.8818421363830566,-0.701501086426, 3.19865341797, 9.06205328369, 30.9312977099, -1.09923664122, -0.167938931298
0.88338303565979,-0.701501086426, 3.19865341797, 9.06205328369, 30.9312977099, -1.09923664122, -0.167938931298
0.8847451210021973,-0.701501086426, 3.19865341797, 9.06205328369, 30.9312977099, -1.09923664122, -0.167938931298
0.8862290382385254,-0.701501086426, 3.19865341797, 9.06205328369, 30.9312977099, -1.09923664122, -0.167938931298
0.8875820636749268,-0.701501086426, 3.19865341797, 9.06205328369, 30.9312977099, -1.09923664122, -0.167938931298
0.8893101215362549,-0.701501086426, 3.19865341797, 9.06205328369, 30.9312977099, -1.09923664122, -0.167938931298
0.8908021450042725,-0.701501086426, 3.19865341797, 9.06205328369, 30.9312977099, -1.09923664122, -0.167938931298
0.8943831920623779,-0.701501086426, 3.19865341797, 9.06205328369, 30.9312977099, -1.09923664122, -0.167938931298
0.8958239555358887,-0.701501086426, 3.19865341797, 9.06205328369, 30.9312977099, -1.09923664122, -0.167938931298
0.8969149589538574,-0.701501086426, 3.19865341797, 9.06205328369, 30.9312977099, -1.09923664122, -0.167938931298
0.8979840278625488,-0.701501086426, 3.19865341797, 9.06205328369, 30.9312977099, -1.09923664122, -0.167938931298
0.9001030921936035,-0.701501086426, 3.19865341797, 9.06205328369, 30.9312977099, -1.09923664122, -0.167938931298
0.9018771648406982,-0.701501086426, 3.19865341797, 9.06205328369, 30.9312977099, -1.09923664122, -0.167938931298
0.9038851261138916,-0.701501086426, 3.19865341797, 9.06205328369, 30.9312977099, -1.09923664122, -0.167938931298
0.9071440696716309,-0.701501086426, 3.19865341797, 9.06205328369, 30.9312977099, -1.09923664122, -0.167938931298
0.909250020980835,-0.701501086426, 3.19865341797, 9.06205328369, 30.9312977099, -1.09923664122, -0.167938931298
0.9113161563873291,-0.701501086426, 3.19865341797, 9.06205328369, 30.9312977099, -1.09923664122, -0.167938931298
0.913275957107544,-0.701501086426, 3.19865341797, 9.06205328369, 30.9312977099, -1.09923664122, -0.167938931298
0.9151589870452881,-0.701501086426, 3.19865341797, 9.06205328369, 30.9312977099, -1.09923664122, -0.167938931298
0.9187061786651611,-0.701501086426, 3.19865341797, 9.06205328369, 30.9312977099, -1.09923664122, -0.167938931298
0.920417070388794,-0.701501086426, 3.19865341797, 9.06205328369, 30.9312977099, -1.09923664122, -0.167938931298
0.9222490787506104,-0.701501086426, 3.19865341797, 9.06205328369, 30.9312977099, -1.09923664122, -0.167938931298
0.9264140129089355,-0.756567724609, 3.1244331665, 8.92558378906, 30.9770992366, -1.04580152672, -0.251908396947
0.9278490543365479,-0.756567724609, 3.1244331665, 8.92558378906, 30.9770992366, -1.04580152672, -0.251908396947
0.9293670654296875,-0.756567724609, 3.1244331665, 8.92558378906, 30.9770992366, -1.04580152672, -0.251908396947
0.9314479827880859,-0.756567724609, 3.1244331665, 8.92558378906, 30.9770992366, -1.04580152672, -0.251908396947
0.933509111404419,-0.756567724609, 3.1244331665, 8.92558378906, 30.9770992366, -1.04580152672, -0.251908396947
0.9354779720306396,-0.756567724609, 3.1244331665, 8.92558378906, 30.9770992366, -1.04580152672, -0.251908396947
0.9396841526031494,-0.756567724609, 3.1244331665, 8.92558378906, 30.9770992366, -1.04580152672, -0.251908396947
0.9426560401916504,-0.756567724609, 3.1244331665, 8.92558378906, 30.9770992366, -1.04580152672, -0.251908396947
0.9452130794525146,-0.756567724609, 3.1244331665, 8.92558378906, 30.9770992366, -1.04580152672, -0.251908396947
0.9467601776123047,-0.756567724609, 3.1244331665, 8.92558378906, 30.9770992366, -1.04580152672, -0.251908396947
0.9482040405273438,-0.756567724609, 3.1244331665, 8.92558378906, 30.9770992366, -1.04580152672, -0.251908396947
0.9496710300445557,-0.756567724609, 3.1244331665, 8.92558378906, 30.9770992366, -1.04580152672, -0.251908396947
0.951322078704834,-0.756567724609, 3.1244331665, 8.92558378906, 30.9770992366, -1.04580152672, -0.251908396947
0.952890157699585,-0.756567724609, 3.1244331665, 8.92558378906, 30.9770992366, -1.04580152672, -0.251908396947
0.9544951915740967,-0.756567724609, 3.1244331665, 8.92558378906, 30.9770992366, -1.04580152672, -0.251908396947
0.9559521675109863,-0.756567724609, 3.1244331665, 8.92558378906, 30.9770992366, -1.04580152672, -0.251908396947
0.9575021266937256,-0.756567724609, 3.1244331665, 8.92558378906, 30.9770992366, -1.04580152672, -0.251908396947
0.9590799808502197,-0.756567724609, 3.1244331665, 8.92558378906, 30.9770992366, -1.04580152672, -0.251908396947
0.9608900547027588,-0.756567724609, 3.1244331665, 8.92558378906, 30.9770992366, -1.04580152672, -0.251908396947
0.9625539779663086,-0.756567724609, 3.1244331665, 8.92558378906, 30.9770992366, -1.04580152672, -0.251908396947
0.9640250205993652,-0.756567724609, 3.1244331665, 8.92558378906, 30.9770992366, -1.04580152672, -0.251908396947
0.9654669761657715,-0.756567724609, 3.1244331665, 8.92558378906, 30.9770992366, -1.04580152672, -0.251908396947
0.9668431282043457,-0.756567724609, 3.1244331665, 8.92558378906, 30.9770992366, -1.04580152672, -0.251908396947
0.9682719707489014,-0.756567724609, 3.1244331665, 8.92558378906, 30.9770992366, -1.04580152672, -0.251908396947
0.9702961444854736,-0.756567724609, 3.1244331665, 8.92558378906, 30.9770992366, -1.04580152672, -0.251908396947
0.9740560054779053,-0.756567724609, 3.1244331665, 8.92558378906, 30.9770992366, -1.04580152672, -0.251908396947
0.9767811298370361,-0.756567724609, 3.1244331665, 8.92558378906, 30.9770992366, -1.04580152672, -0.251908396947
0.9794130325317383,-0.756567724609, 3.1244331665, 8.92558378906, 30.9770992366, -1.04580152672, -0.251908396947
0.9810621738433838,-0.756567724609, 3.1244331665, 8.92558378906, 30.9770992366, -1.04580152672, -0.251908396947
0.983605146408081,-0.756567724609, 3.1244331665, 8.92558378906, 30.9770992366, -1.04580152672, -0.251908396947
0.9850170612335205,-0.756567724609, 3.1244331665, 8.92558378906, 30.9770992366, -1.04580152672, -0.251908396947
0.986457109451294,-0.756567724609, 3.1244331665, 8.92558378906, 30.9770992366, -1.04580152672, -0.251908396947
0.9882149696350098,-0.756567724609, 3.1244331665, 8.92558378906, 30.9770992366, -1.04580152672, -0.251908396947
0.990380048751831,-0.756567724609, 3.1244331665, 8.92558378906, 30.9770992366, -1.04580152672, -0.251908396947
0.9931020736694336,-0.756567724609, 3.1244331665, 8.92558378906, 30.9770992366, -1.04580152672, -0.251908396947
0.9988009929656982,-0.756567724609, 3.1244331665, 8.92558378906, 30.9770992366, -1.04580152672, -0.251908396947
1.0021131038665771,-0.756567724609, 3.1244331665, 8.92558378906, 30.9770992366, -1.04580152672, -0.251908396947
1.0045740604400635,-0.756567724609, 3.1244331665, 8.92558378906, 30.9770992366, -1.04580152672, -0.251908396947
1.0063271522521973,-0.756567724609, 3.1244331665, 8.92558378906, 30.9770992366, -1.04580152672, -0.251908396947
1.0076980590820312,-0.756567724609, 3.1244331665, 8.92558378906, 30.9770992366, -1.04580152672, -0.251908396947
1.0091991424560547,-0.756567724609, 3.1244331665, 8.92558378906, 30.9770992366, -1.04580152672, -0.251908396947
1.0106241703033447,-0.756567724609, 3.1244331665, 8.92558378906, 30.9770992366, -1.04580152672, -0.251908396947
1.0123541355133057,-0.756567724609, 3.1244331665, 8.92558378906, 30.9770992366, -1.04580152672, -0.251908396947
1.0139391422271729,-0.756567724609, 3.1244331665, 8.92558378906, 30.9770992366, -1.04580152672, -0.251908396947
1.017773151397705,-0.756567724609, 3.1244331665, 8.92558378906, 30.9770992366, -1.04580152672, -0.251908396947
1.019625186920166,-0.756567724609, 3.1244331665, 8.92558378906, 30.9770992366, -1.04580152672, -0.251908396947
1.0213050842285156,-0.756567724609, 3.1244331665, 8.92558378906, 30.9770992366, -1.04580152672, -0.251908396947
1.0264980792999268,-0.715866296387, 2.91134921875, 8.96628521729, 31.1603053435, -1.0, -0.30534351145
1.029555082321167,-0.715866296387, 2.91134921875, 8.96628521729, 31.1603053435, -1.0, -0.30534351145
1.0325779914855957,-0.715866296387, 2.91134921875, 8.96628521729, 31.1603053435, -1.0, -0.30534351145
1.0354740619659424,-0.715866296387, 2.91134921875, 8.96628521729, 31.1603053435, -1.0, -0.30534351145
1.0372960567474365,-0.715866296387, 2.91134921875, 8.96628521729, 31.1603053435, -1.0, -0.30534351145
1.0384750366210938,-0.715866296387, 2.91134921875, 8.96628521729, 31.1603053435, -1.0, -0.30534351145
1.0395829677581787,-0.715866296387, 2.91134921875, 8.96628521729, 31.1603053435, -1.0, -0.30534351145
1.0405781269073486,-0.715866296387, 2.91134921875, 8.96628521729, 31.1603053435, -1.0, -0.30534351145
1.0418200492858887,-0.715866296387, 2.91134921875, 8.96628521729, 31.1603053435, -1.0, -0.30534351145
1.0428149700164795,-0.715866296387, 2.91134921875, 8.96628521729, 31.1603053435, -1.0, -0.30534351145
1.043895959854126,-0.715866296387, 2.91134921875, 8.96628521729, 31.1603053435, -1.0, -0.30534351145
1.0450770854949951,-0.715866296387, 2.91134921875, 8.96628521729, 31.1603053435, -1.0, -0.30534351145
1.0460870265960693,-0.715866296387, 2.91134921875, 8.96628521729, 31.1603053435, -1.0, -0.30534351145
1.0470480918884277,-0.715866296387, 2.91134921875, 8.96628521729, 31.1603053435, -1.0, -0.30534351145
1.0480241775512695,-0.715866296387, 2.91134921875, 8.96628521729, 31.1603053435, -1.0, -0.30534351145
1.0495550632476807,-0.715866296387, 2.91134921875, 8.96628521729, 31.1603053435, -1.0, -0.30534351145
1.0513010025024414,-0.715866296387, 2.91134921875, 8.96628521729, 31.1603053435, -1.0, -0.30534351145
1.0528521537780762,-0.715866296387, 2.91134921875, 8.96628521729, 31.1603053435, -1.0, -0.30534351145
1.0546150207519531,-0.715866296387, 2.91134921875, 8.96628521729, 31.1603053435, -1.0, -0.30534351145
1.0564310550689697,-0.715866296387, 2.91134921875, 8.96628521729, 31.1603053435, -1.0, -0.30534351145
1.058643102645874,-0.715866296387, 2.91134921875, 8.96628521729, 31.1603053435, -1.0, -0.30534351145
1.0615291595458984,-0.715866296387, 2.91134921875, 8.96628521729, 31.1603053435, -1.0, -0.30534351145
1.0665781497955322,-0.715866296387, 2.91134921875, 8.96628521729, 31.1603053435, -1.0, -0.30534351145
1.0688910484313965,-0.715866296387, 2.91134921875, 8.96628521729, 31.1603053435, -1.0, -0.30534351145
1.0706651210784912,-0.715866296387, 2.91134921875, 8.96628521729, 31.1603053435, -1.0, -0.30534351145
1.0723390579223633,-0.715866296387, 2.91134921875, 8.96628521729, 31.1603053435, -1.0, -0.30534351145
1.0741591453552246,-0.715866296387, 2.91134921875, 8.96628521729, 31.1603053435, -1.0, -0.30534351145
1.0758490562438965,-0.715866296387, 2.91134921875, 8.96628521729, 31.1603053435, -1.0, -0.30534351145
1.0774459838867188,-0.715866296387, 2.91134921875, 8.96628521729, 31.1603053435, -1.0, -0.30534351145
1.0789191722869873,-0.715866296387, 2.91134921875, 8.96628521729, 31.1603053435, -1.0, -0.30534351145
1.080268144607544,-0.715866296387, 2.91134921875, 8.96628521729, 31.1603053435, -1.0, -0.30534351145
1.0822160243988037,-0.715866296387, 2.91134921875, 8.96628521729, 31.1603053435, -1.0, -0.30534351145
1.0839660167694092,-0.715866296387, 2.91134921875, 8.96628521729, 31.1603053435, -1.0, -0.30534351145
1.0859181880950928,-0.715866296387, 2.91134921875, 8.96628521729, 31.1603053435, -1.0, -0.30534351145
1.0899181365966797,-0.715866296387, 2.91134921875, 8.96628521729, 31.1603053435, -1.0, -0.30534351145
1.0932559967041016,-0.715866296387, 2.91134921875, 8.96628521729, 31.1603053435, -1.0, -0.30534351145
1.0957341194152832,-0.715866296387, 2.91134921875, 8.96628521729, 31.1603053435, -1.0, -0.30534351145
1.1002931594848633,-0.715866296387, 2.91134921875, 8.96628521729, 31.1603053435, -1.0, -0.30534351145
1.1022181510925293,-0.715866296387, 2.91134921875, 8.96628521729, 31.1603053435, -1.0, -0.30534351145
1.1039700508117676,-0.715866296387, 2.91134921875, 8.96628521729, 31.1603053435, -1.0, -0.30534351145
1.1055991649627686,-0.715866296387, 2.91134921875, 8.96628521729, 31.1603053435, -1.0, -0.30534351145
1.107254981994629,-0.715866296387, 2.91134921875, 8.96628521729, 31.1603053435, -1.0, -0.30534351145
1.1089160442352295,-0.715866296387, 2.91134921875, 8.96628521729, 31.1603053435, -1.0, -0.30534351145
1.110753059387207,-0.715866296387, 2.91134921875, 8.96628521729, 31.1603053435, -1.0, -0.30534351145
1.1124281883239746,-0.715866296387, 2.91134921875, 8.96628521729, 31.1603053435, -1.0, -0.30534351145
1.115476131439209,-0.715866296387, 2.91134921875, 8.96628521729, 31.1603053435, -1.0, -0.30534351145
1.1198220252990723,-0.715866296387, 2.91134921875, 8.96628521729, 31.1603053435, -1.0, -0.30534351145
1.1239089965820312,-0.715866296387, 2.91134921875, 8.96628521729, 31.1603053435, -1.0, -0.30534351145
1.1297011375427246,-0.746990917969, 3.15316358643, 9.05008227539, 31.0381679389, -1.01526717557, -0.190839694656
1.1321041584014893,-0.746990917969, 3.15316358643, 9.05008227539, 31.0381679389, -1.01526717557, -0.190839694656
1.1337521076202393,-0.746990917969, 3.15316358643, 9.05008227539, 31.0381679389, -1.01526717557, -0.190839694656
1.135329008102417,-0.746990917969, 3.15316358643, 9.05008227539, 31.0381679389, -1.01526717557, -0.190839694656
1.1369421482086182,-0.746990917969, 3.15316358643, 9.05008227539, 31.0381679389, -1.01526717557, -0.190839694656
1.1385300159454346,-0.746990917969, 3.15316358643, 9.05008227539, 31.0381679389, -1.01526717557, -0.190839694656
1.1401400566101074,-0.746990917969, 3.15316358643, 9.05008227539, 31.0381679389, -1.01526717557, -0.190839694656
1.1420249938964844,-0.746990917969, 3.15316358643, 9.05008227539, 31.0381679389, -1.01526717557, -0.190839694656
1.1437900066375732,-0.746990917969, 3.15316358643, 9.05008227539, 31.0381679389, -1.01526717557, -0.190839694656
1.1455540657043457,-0.746990917969, 3.15316358643, 9.05008227539, 31.0381679389, -1.01526717557, -0.190839694656
1.1476521492004395,-0.746990917969, 3.15316358643, 9.05008227539, 31.0381679389, -1.01526717557, -0.190839694656
1.1497180461883545,-0.746990917969, 3.15316358643, 9.05008227539, 31.0381679389, -1.01526717557, -0.190839694656
1.1550111770629883,-0.746990917969, 3.15316358643, 9.05008227539, 31.0381679389, -1.01526717557, -0.190839694656
1.15718412399292,-0.746990917969, 3.15316358643, 9.05008227539, 31.0381679389, -1.01526717557, -0.190839694656
1.1594431400299072,-0.746990917969, 3.15316358643, 9.05008227539, 31.0381679389, -1.01526717557, -0.190839694656
1.1620080471038818,-0.746990917969, 3.15316358643, 9.05008227539, 31.0381679389, -1.01526717557, -0.190839694656
1.1635780334472656,-0.746990917969, 3.15316358643, 9.05008227539, 31.0381679389, -1.01526717557, -0.190839694656
1.164963960647583,-0.746990917969, 3.15316358643, 9.05008227539, 31.0381679389, -1.01526717557, -0.190839694656
1.1666181087493896,-0.746990917969, 3.15316358643, 9.05008227539, 31.0381679389, -1.01526717557, -0.190839694656
1.167809009552002,-0.746990917969, 3.15316358643, 9.05008227539, 31.0381679389, -1.01526717557, -0.190839694656
1.1693429946899414,-0.746990917969, 3.15316358643, 9.05008227539, 31.0381679389, -1.01526717557, -0.190839694656
1.1711630821228027,-0.746990917969, 3.15316358643, 9.05008227539, 31.0381679389, -1.01526717557, -0.190839694656
1.1726431846618652,-0.746990917969, 3.15316358643, 9.05008227539, 31.0381679389, -1.01526717557, -0.190839694656
1.174354076385498,-0.746990917969, 3.15316358643, 9.05008227539, 31.0381679389, -1.01526717557, -0.190839694656
1.1763720512390137,-0.746990917969, 3.15316358643, 9.05008227539, 31.0381679389, -1.01526717557, -0.190839694656
1.1792681217193604,-0.746990917969, 3.15316358643, 9.05008227539, 31.0381679389, -1.01526717557, -0.190839694656
1.1832611560821533,-0.746990917969, 3.15316358643, 9.05008227539, 31.0381679389, -1.01526717557, -0.190839694656
1.186082124710083,-0.746990917969, 3.15316358643, 9.05008227539, 31.0381679389, -1.01526717557, -0.190839694656
1.1883959770202637,-0.746990917969, 3.15316358643, 9.05008227539, 31.0381679389, -1.01526717557, -0.190839694656
1.1904621124267578,-0.746990917969, 3.15316358643, 9.05008227539, 31.0381679389, -1.01526717557, -0.190839694656
1.1947109699249268,-0.746990917969, 3.15316358643, 9.05008227539, 31.0381679389, -1.01526717557, -0.190839694656
1.1958301067352295,-0.746990917969, 3.15316358643, 9.05008227539, 31.0381679389, -1.01526717557, -0.190839694656
1.1974780559539795,-0.746990917969, 3.15316358643, 9.05008227539, 31.0381679389, -1.01526717557, -0.190839694656
1.1991469860076904,-0.746990917969, 3.15316358643, 9.05008227539, 31.0381679389, -1.01526717557, -0.190839694656
1.2005720138549805,-0.746990917969, 3.15316358643, 9.05008227539, 31.0381679389, -1.01526717557, -0.190839694656
1.202341079711914,-0.746990917969, 3.15316358643, 9.05008227539, 31.0381679389, -1.01526717557, -0.190839694656
1.204172134399414,-0.746990917969, 3.15316358643, 9.05008227539, 31.0381679389, -1.01526717557, -0.190839694656
1.2057240009307861,-0.746990917969, 3.15316358643, 9.05008227539, 31.0381679389, -1.01526717557, -0.190839694656
1.207646131515503,-0.746990917969, 3.15316358643, 9.05008227539, 31.0381679389, -1.01526717557, -0.190839694656
1.2128901481628418,-0.746990917969, 3.15316358643, 9.05008227539, 31.0381679389, -1.01526717557, -0.190839694656
1.2167561054229736,-0.746990917969, 3.15316358643, 9.05008227539, 31.0381679389, -1.01526717557, -0.190839694656
1.2230620384216309,-0.746990917969, 3.15316358643, 9.05008227539, 31.0381679389, -1.01526717557, -0.190839694656
1.2277259826660156,-0.802057556152, 2.95205064697, 9.12909093018, 31.0534351145, -1.01526717557, -0.24427480916
1.2298130989074707,-0.802057556152, 2.95205064697, 9.12909093018, 31.0534351145, -1.01526717557, -0.24427480916
1.2330191135406494,-0.802057556152, 2.95205064697, 9.12909093018, 31.0534351145, -1.01526717557, -0.24427480916
1.234856128692627,-0.802057556152, 2.95205064697, 9.12909093018, 31.0534351145, -1.01526717557, -0.24427480916
1.2370731830596924,-0.802057556152, 2.95205064697, 9.12909093018, 31.0534351145, -1.01526717557, -0.24427480916
1.2391021251678467,-0.802057556152, 2.95205064697, 9.12909093018, 31.0534351145, -1.01526717557, -0.24427480916
1.2444779872894287,-0.802057556152, 2.95205064697, 9.12909093018, 31.0534351145, -1.01526717557, -0.24427480916
1.247709035873413,-0.802057556152, 2.95205064697, 9.12909093018, 31.0534351145, -1.01526717557, -0.24427480916
1.2501881122589111,-0.802057556152, 2.95205064697, 9.12909093018, 31.0534351145, -1.01526717557, -0.24427480916
1.2518181800842285,-0.802057556152, 2.95205064697, 9.12909093018, 31.0534351145, -1.01526717557, -0.24427480916
1.253443956375122,-0.802057556152, 2.95205064697, 9.12909093018, 31.0534351145, -1.01526717557, -0.24427480916
1.2551319599151611,-0.802057556152, 2.95205064697, 9.12909093018, 31.0534351145, -1.01526717557, -0.24427480916
1.25689697265625,-0.802057556152, 2.95205064697, 9.12909093018, 31.0534351145, -1.01526717557, -0.24427480916
1.2585480213165283,-0.802057556152, 2.95205064697, 9.12909093018, 31.0534351145, -1.01526717557, -0.24427480916
1.2602341175079346,-0.802057556152, 2.95205064697, 9.12909093018, 31.0534351145, -1.01526717557, -0.24427480916
1.2628071308135986,-0.802057556152, 2.95205064697, 9.12909093018, 31.0534351145, -1.01526717557, -0.24427480916
1.263965129852295,-0.802057556152, 2.95205064697, 9.12909093018, 31.0534351145, -1.01526717557, -0.24427480916
1.2650160789489746,-0.802057556152, 2.95205064697, 9.12909093018, 31.0534351145, -1.01526717557, -0.24427480916
1.2664661407470703,-0.802057556152, 2.95205064697, 9.12909093018, 31.0534351145, -1.01526717557, -0.24427480916
1.2681260108947754,-0.802057556152, 2.95205064697, 9.12909093018, 31.0534351145, -1.01526717557, -0.24427480916
1.272435188293457,-0.802057556152, 2.95205064697, 9.12909093018, 31.0534351145, -1.01526717557, -0.24427480916
1.2749590873718262,-0.802057556152, 2.95205064697, 9.12909093018, 31.0534351145, -1.01526717557, -0.24427480916
1.2770030498504639,-0.802057556152, 2.95205064697, 9.12909093018, 31.0534351145, -1.01526717557, -0.24427480916
1.278191089630127,-0.802057556152, 2.95205064697, 9.12909093018, 31.0534351145, -1.01526717557, -0.24427480916
1.279299020767212,-0.802057556152, 2.95205064697, 9.12909093018, 31.0534351145, -1.01526717557, -0.24427480916
1.280527114868164,-0.802057556152, 2.95205064697, 9.12909093018, 31.0534351145, -1.01526717557, -0.24427480916
1.2820250988006592,-0.802057556152, 2.95205064697, 9.12909093018, 31.0534351145, -1.01526717557, -0.24427480916
1.2831921577453613,-0.802057556152, 2.95205064697, 9.12909093018, 31.0534351145, -1.01526717557, -0.24427480916
1.2850899696350098,-0.802057556152, 2.95205064697, 9.12909093018, 31.0534351145, -1.01526717557, -0.24427480916
1.286756992340088,-0.802057556152, 2.95205064697, 9.12909093018, 31.0534351145, -1.01526717557, -0.24427480916
1.2883470058441162,-0.802057556152, 2.95205064697, 9.12909093018, 31.0534351145, -1.01526717557, -0.24427480916
1.2905051708221436,-0.802057556152, 2.95205064697, 9.12909093018, 31.0534351145, -1.01526717557, -0.24427480916
1.2931511402130127,-0.802057556152, 2.95205064697, 9.12909093018, 31.0534351145, -1.01526717557, -0.24427480916
1.294957160949707,-0.802057556152, 2.95205064697, 9.12909093018, 31.0534351145, -1.01526717557, -0.24427480916
1.2965800762176514,-0.802057556152, 2.95205064697, 9.12909093018, 31.0534351145, -1.01526717557, -0.24427480916
1.3005621433258057,-0.802057556152, 2.95205064697, 9.12909093018, 31.0534351145, -1.01526717557, -0.24427480916
1.3030641078948975,-0.802057556152, 2.95205064697, 9.12909093018, 31.0534351145, -1.01526717557, -0.24427480916
1.3054521083831787,-0.802057556152, 2.95205064697, 9.12909093018, 31.0534351145, -1.01526717557, -0.24427480916
1.3094570636749268,-0.802057556152, 2.95205064697, 9.12909093018, 31.0534351145, -1.01526717557, -0.24427480916
1.3131351470947266,-0.802057556152, 2.95205064697, 9.12909093018, 31.0534351145, -1.01526717557, -0.24427480916
1.3158721923828125,-0.802057556152, 2.95205064697, 9.12909093018, 31.0534351145, -1.01526717557, -0.24427480916
1.317929983139038,-0.802057556152, 2.95205064697, 9.12909093018, 31.0534351145, -1.01526717557, -0.24427480916
1.3223011493682861,-0.802057556152, 2.95205064697, 9.12909093018, 31.0534351145, -1.01526717557, -0.24427480916
1.3242590427398682,-0.802057556152, 2.95205064697, 9.12909093018, 31.0534351145, -1.01526717557, -0.24427480916
1.3258299827575684,-0.802057556152, 2.95205064697, 9.12909093018, 31.0534351145, -1.01526717557, -0.24427480916
1.330449104309082,-0.665588061523, 3.05021291504, 9.02374605713, 30.8549618321, -1.13740458015, -0.282442748092
1.3331019878387451,-0.665588061523, 3.05021291504, 9.02374605713, 30.8549618321, -1.13740458015, -0.282442748092
1.3369851112365723,-0.665588061523, 3.05021291504, 9.02374605713, 30.8549618321, -1.13740458015, -0.282442748092
1.339704990386963,-0.665588061523, 3.05021291504, 9.02374605713, 30.8549618321, -1.13740458015, -0.282442748092
1.3422369956970215,-0.665588061523, 3.05021291504, 9.02374605713, 30.8549618321, -1.13740458015, -0.282442748092
1.3445441722869873,-0.665588061523, 3.05021291504, 9.02374605713, 30.8549618321, -1.13740458015, -0.282442748092
1.3462460041046143,-0.665588061523, 3.05021291504, 9.02374605713, 30.8549618321, -1.13740458015, -0.282442748092
1.347905158996582,-0.665588061523, 3.05021291504, 9.02374605713, 30.8549618321, -1.13740458015, -0.282442748092
1.349524974822998,-0.665588061523, 3.05021291504, 9.02374605713, 30.8549618321, -1.13740458015, -0.282442748092
1.35135817527771,-0.665588061523, 3.05021291504, 9.02374605713, 30.8549618321, -1.13740458015, -0.282442748092
1.3529419898986816,-0.665588061523, 3.05021291504, 9.02374605713, 30.8549618321, -1.13740458015, -0.282442748092
1.3547229766845703,-0.665588061523, 3.05021291504, 9.02374605713, 30.8549618321, -1.13740458015, -0.282442748092
1.3569300174713135,-0.665588061523, 3.05021291504, 9.02374605713, 30.8549618321, -1.13740458015, -0.282442748092
1.359032154083252,-0.665588061523, 3.05021291504, 9.02374605713, 30.8549618321, -1.13740458015, -0.282442748092
1.361246109008789,-0.665588061523, 3.05021291504, 9.02374605713, 30.8549618321, -1.13740458015, -0.282442748092
1.3664209842681885,-0.665588061523, 3.05021291504, 9.02374605713, 30.8549618321, -1.13740458015, -0.282442748092
1.3698949813842773,-0.665588061523, 3.05021291504, 9.02374605713, 30.8549618321, -1.13740458015, -0.282442748092
1.3718321323394775,-0.665588061523, 3.05021291504, 9.02374605713, 30.8549618321, -1.13740458015, -0.282442748092
1.3736631870269775,-0.665588061523, 3.05021291504, 9.02374605713, 30.8549618321, -1.13740458015, -0.282442748092
1.3756699562072754,-0.665588061523, 3.05021291504, 9.02374605713, 30.8549618321, -1.13740458015, -0.282442748092
1.3769581317901611,-0.665588061523, 3.05021291504, 9.02374605713, 30.8549618321, -1.13740458015, -0.282442748092
1.3780629634857178,-0.665588061523, 3.05021291504, 9.02374605713, 30.8549618321, -1.13740458015, -0.282442748092
1.3791821002960205,-0.665588061523, 3.05021291504, 9.02374605713, 30.8549618321, -1.13740458015, -0.282442748092
1.3805580139160156,-0.665588061523, 3.05021291504, 9.02374605713, 30.8549618321, -1.13740458015, -0.282442748092
1.3819200992584229,-0.665588061523, 3.05021291504, 9.02374605713, 30.8549618321, -1.13740458015, -0.282442748092
1.3837800025939941,-0.665588061523, 3.05021291504, 9.02374605713, 30.8549618321, -1.13740458015, -0.282442748092
1.3850440979003906,-0.665588061523, 3.05021291504, 9.02374605713, 30.8549618321, -1.13740458015, -0.282442748092
1.3861541748046875,-0.665588061523, 3.05021291504, 9.02374605713, 30.8549618321, -1.13740458015, -0.282442748092
1.3872511386871338,-0.665588061523, 3.05021291504, 9.02374605713, 30.8549618321, -1.13740458015, -0.282442748092
1.388404130935669,-0.665588061523, 3.05021291504, 9.02374605713, 30.8549618321, -1.13740458015, -0.282442748092
1.3905820846557617,-0.665588061523, 3.05021291504, 9.02374605713, 30.8549618321, -1.13740458015, -0.282442748092
1.3977980613708496,-0.665588061523, 3.05021291504, 9.02374605713, 30.8549618321, -1.13740458015, -0.282442748092
1.4002320766448975,-0.665588061523, 3.05021291504, 9.02374605713, 30.8549618321, -1.13740458015, -0.282442748092
1.4024081230163574,-0.665588061523, 3.05021291504, 9.02374605713, 30.8549618321, -1.13740458015, -0.282442748092
1.403939962387085,-0.665588061523, 3.05021291504, 9.02374605713, 30.8549618321, -1.13740458015, -0.282442748092
1.4053471088409424,-0.665588061523, 3.05021291504, 9.02374605713, 30.8549618321, -1.13740458015, -0.282442748092
1.4068269729614258,-0.665588061523, 3.05021291504, 9.02374605713, 30.8549618321, -1.13740458015, -0.282442748092
1.409546136856079,-0.665588061523, 3.05021291504, 9.02374605713, 30.8549618321, -1.13740458015, -0.282442748092
1.4114861488342285,-0.665588061523, 3.05021291504, 9.02374605713, 30.8549618321, -1.13740458015, -0.282442748092
1.41316819190979,-0.665588061523, 3.05021291504, 9.02374605713, 30.8549618321, -1.13740458015, -0.282442748092
1.4147050380706787,-0.665588061523, 3.05021291504, 9.02374605713, 30.8549618321, -1.13740458015, -0.282442748092
1.4164981842041016,-0.665588061523, 3.05021291504, 9.02374605713, 30.8549618321, -1.13740458015, -0.282442748092
1.4179739952087402,-0.665588061523, 3.05021291504, 9.02374605713, 30.8549618321, -1.13740458015, -0.282442748092
1.419564962387085,-0.665588061523, 3.05021291504, 9.02374605713, 30.8549618321, -1.13740458015, -0.282442748092
1.4247691631317139,-0.665588061523, 3.05021291504, 9.02374605713, 30.8549618321, -1.13740458015, -0.282442748092
1.4282021522521973,-0.665588061523, 3.05021291504, 9.02374605713, 30.8549618321, -1.13740458015, -0.282442748092
1.4306020736694336,-0.665588061523, 3.05021291504, 9.02374605713, 30.8549618321, -1.13740458015, -0.282442748092
1.4369621276855469,-0.890643017578, 3.09091434326, 9.06205328369, 30.893129771, -0.984732824427, -0.267175572519
1.4393401145935059,-0.890643017578, 3.09091434326, 9.06205328369, 30.893129771, -0.984732824427, -0.267175572519
1.441331148147583,-0.890643017578, 3.09091434326, 9.06205328369, 30.893129771, -0.984732824427, -0.267175572519
1.4428069591522217,-0.890643017578, 3.09091434326, 9.06205328369, 30.893129771, -0.984732824427, -0.267175572519
1.4444890022277832,-0.890643017578, 3.09091434326, 9.06205328369, 30.893129771, -0.984732824427, -0.267175572519
1.4460880756378174,-0.890643017578, 3.09091434326, 9.06205328369, 30.893129771, -0.984732824427, -0.267175572519
1.447901964187622,-0.890643017578, 3.09091434326, 9.06205328369, 30.893129771, -0.984732824427, -0.267175572519
1.449385166168213,-0.890643017578, 3.09091434326, 9.06205328369, 30.893129771, -0.984732824427, -0.267175572519
1.4515380859375,-0.890643017578, 3.09091434326, 9.06205328369, 30.893129771, -0.984732824427, -0.267175572519
1.4535391330718994,-0.890643017578, 3.09091434326, 9.06205328369, 30.893129771, -0.984732824427, -0.267175572519
1.45536208152771,-0.890643017578, 3.09091434326, 9.06205328369, 30.893129771, -0.984732824427, -0.267175572519
1.457430124282837,-0.890643017578, 3.09091434326, 9.06205328369, 30.893129771, -0.984732824427, -0.267175572519
1.4606950283050537,-0.890643017578, 3.09091434326, 9.06205328369, 30.893129771, -0.984732824427, -0.267175572519
1.4642300605773926,-0.890643017578, 3.09091434326, 9.06205328369, 30.893129771, -0.984732824427, -0.267175572519
1.467635154724121,-0.890643017578, 3.09091434326, 9.06205328369, 30.893129771, -0.984732824427, -0.267175572519
1.4706470966339111,-0.890643017578, 3.09091434326, 9.06205328369, 30.893129771, -0.984732824427, -0.267175572519
1.4725451469421387,-0.890643017578, 3.09091434326, 9.06205328369, 30.893129771, -0.984732824427, -0.267175572519
1.474722146987915,-0.890643017578, 3.09091434326, 9.06205328369, 30.893129771, -0.984732824427, -0.267175572519
1.4763619899749756,-0.890643017578, 3.09091434326, 9.06205328369, 30.893129771, -0.984732824427, -0.267175572519
1.4780211448669434,-0.890643017578, 3.09091434326, 9.06205328369, 30.893129771, -0.984732824427, -0.267175572519
1.479598045349121,-0.890643017578, 3.09091434326, 9.06205328369, 30.893129771, -0.984732824427, -0.267175572519
1.4821059703826904,-0.890643017578, 3.09091434326, 9.06205328369, 30.893129771, -0.984732824427, -0.267175572519
1.485888957977295,-0.890643017578, 3.09091434326, 9.06205328369, 30.893129771, -0.984732824427, -0.267175572519
1.48940110206604,-0.890643017578, 3.09091434326, 9.06205328369, 30.893129771, -0.984732824427, -0.267175572519
1.4930131435394287,-0.890643017578, 3.09091434326, 9.06205328369, 30.893129771, -0.984732824427, -0.267175572519
1.4982199668884277,-0.890643017578, 3.09091434326, 9.06205328369, 30.893129771, -0.984732824427, -0.267175572519
1.4999630451202393,-0.890643017578, 3.09091434326, 9.06205328369, 30.893129771, -0.984732824427, -0.267175572519
1.5016310214996338,-0.890643017578, 3.09091434326, 9.06205328369, 30.893129771, -0.984732824427, -0.267175572519
1.5027761459350586,-0.890643017578, 3.09091434326, 9.06205328369, 30.893129771, -0.984732824427, -0.267175572519
1.5039141178131104,-0.890643017578, 3.09091434326, 9.06205328369, 30.893129771, -0.984732824427, -0.267175572519
1.5049161911010742,-0.890643017578, 3.09091434326, 9.06205328369, 30.893129771, -0.984732824427, -0.267175572519
1.5058741569519043,-0.890643017578, 3.09091434326, 9.06205328369, 30.893129771, -0.984732824427, -0.267175572519
1.5068089962005615,-0.890643017578, 3.09091434326, 9.06205328369, 30.893129771, -0.984732824427, -0.267175572519
1.5079920291900635,-0.890643017578, 3.09091434326, 9.06205328369, 30.893129771, -0.984732824427, -0.267175572519
1.509282112121582,-0.890643017578, 3.09091434326, 9.06205328369, 30.893129771, -0.984732824427, -0.267175572519
1.5105841159820557,-0.890643017578, 3.09091434326, 9.06205328369, 30.893129771, -0.984732824427, -0.267175572519
1.512242078781128,-0.890643017578, 3.09091434326, 9.06205328369, 30.893129771, -0.984732824427, -0.267175572519
1.5140211582183838,-0.890643017578, 3.09091434326, 9.06205328369, 30.893129771, -0.984732824427, -0.267175572519
1.5158390998840332,-0.890643017578, 3.09091434326, 9.06205328369, 30.893129771, -0.984732824427, -0.267175572519
1.5220081806182861,-0.890643017578, 3.09091434326, 9.06205328369, 30.893129771, -0.984732824427, -0.267175572519
1.5243690013885498,-0.890643017578, 3.09091434326, 9.06205328369, 30.893129771, -0.984732824427, -0.267175572519
1.5270609855651855,-0.890643017578, 3.09091434326, 9.06205328369, 30.893129771, -0.984732824427, -0.267175572519
1.5319290161132812,-0.677559069824, 3.0286651001, 9.18415756836, 31.2061068702, -1.14503816794, -0.198473282443
1.533569097518921,-0.677559069824, 3.0286651001, 9.18415756836, 31.2061068702, -1.14503816794, -0.198473282443
1.5352120399475098,-0.677559069824, 3.0286651001, 9.18415756836, 31.2061068702, -1.14503816794, -0.198473282443
1.5378241539001465,-0.677559069824, 3.0286651001, 9.18415756836, 31.2061068702, -1.14503816794, -0.198473282443
1.5393140316009521,-0.677559069824, 3.0286651001, 9.18415756836, 31.2061068702, -1.14503816794, -0.198473282443
1.540762186050415,-0.677559069824, 3.0286651001, 9.18415756836, 31.2061068702, -1.14503816794, -0.198473282443
1.5428171157836914,-0.677559069824, 3.0286651001, 9.18415756836, 31.2061068702, -1.14503816794, -0.198473282443
1.5452470779418945,-0.677559069824, 3.0286651001, 9.18415756836, 31.2061068702, -1.14503816794, -0.198473282443
1.54715895652771,-0.677559069824, 3.0286651001, 9.18415756836, 31.2061068702, -1.14503816794, -0.198473282443
1.5489411354064941,-0.677559069824, 3.0286651001, 9.18415756836, 31.2061068702, -1.14503816794, -0.198473282443
1.5511829853057861,-0.677559069824, 3.0286651001, 9.18415756836, 31.2061068702, -1.14503816794, -0.198473282443
1.556631088256836,-0.677559069824, 3.0286651001, 9.18415756836, 31.2061068702, -1.14503816794, -0.198473282443
1.559751033782959,-0.677559069824, 3.0286651001, 9.18415756836, 31.2061068702, -1.14503816794, -0.198473282443
1.5644171237945557,-0.677559069824, 3.0286651001, 9.18415756836, 31.2061068702, -1.14503816794, -0.198473282443
1.56679105758667,-0.677559069824, 3.0286651001, 9.18415756836, 31.2061068702, -1.14503816794, -0.198473282443
1.5683469772338867,-0.677559069824, 3.0286651001, 9.18415756836, 31.2061068702, -1.14503816794, -0.198473282443
1.5698630809783936,-0.677559069824, 3.0286651001, 9.18415756836, 31.2061068702, -1.14503816794, -0.198473282443
1.5718669891357422,-0.677559069824, 3.0286651001, 9.18415756836, 31.2061068702, -1.14503816794, -0.198473282443
1.5740101337432861,-0.677559069824, 3.0286651001, 9.18415756836, 31.2061068702, -1.14503816794, -0.198473282443
1.5758099555969238,-0.677559069824, 3.0286651001, 9.18415756836, 31.2061068702, -1.14503816794, -0.198473282443
1.5777990818023682,-0.677559069824, 3.0286651001, 9.18415756836, 31.2061068702, -1.14503816794, -0.198473282443
1.5804100036621094,-0.677559069824, 3.0286651001, 9.18415756836, 31.2061068702, -1.14503816794, -0.198473282443
1.5842649936676025,-0.677559069824, 3.0286651001, 9.18415756836, 31.2061068702, -1.14503816794, -0.198473282443
1.5899341106414795,-0.677559069824, 3.0286651001, 9.18415756836, 31.2061068702, -1.14503816794, -0.198473282443
1.6019160747528076,-0.677559069824, 3.0286651001, 9.18415756836, 31.2061068702, -1.14503816794, -0.198473282443
1.6040639877319336,-0.677559069824, 3.0286651001, 9.18415756836, 31.2061068702, -1.14503816794, -0.198473282443
1.605816125869751,-0.677559069824, 3.0286651001, 9.18415756836, 31.2061068702, -1.14503816794, -0.198473282443
1.607680082321167,-0.677559069824, 3.0286651001, 9.18415756836, 31.2061068702, -1.14503816794, -0.198473282443
1.6099870204925537,-0.677559069824, 3.0286651001, 9.18415756836, 31.2061068702, -1.14503816794, -0.198473282443
1.614645004272461,-0.677559069824, 3.0286651001, 9.18415756836, 31.2061068702, -1.14503816794, -0.198473282443
1.6172361373901367,-0.677559069824, 3.0286651001, 9.18415756836, 31.2061068702, -1.14503816794, -0.198473282443
1.6241559982299805,-0.677559069824, 3.0286651001, 9.18415756836, 31.2061068702, -1.14503816794, -0.198473282443
1.6294851303100586,-0.735019909668, 3.0765491333, 9.00938084717, 30.9618320611, -0.908396946565, -0.259541984733
1.6315231323242188,-0.735019909668, 3.0765491333, 9.00938084717, 30.9618320611, -0.908396946565, -0.259541984733
1.6343469619750977,-0.735019909668, 3.0765491333, 9.00938084717, 30.9618320611, -0.908396946565, -0.259541984733
1.63572096824646,-0.735019909668, 3.0765491333, 9.00938084717, 30.9618320611, -0.908396946565, -0.259541984733
1.6375269889831543,-0.735019909668, 3.0765491333, 9.00938084717, 30.9618320611, -0.908396946565, -0.259541984733
1.6390321254730225,-0.735019909668, 3.0765491333, 9.00938084717, 30.9618320611, -0.908396946565, -0.259541984733
1.6420481204986572,-0.735019909668, 3.0765491333, 9.00938084717, 30.9618320611, -0.908396946565, -0.259541984733
1.6466610431671143,-0.735019909668, 3.0765491333, 9.00938084717, 30.9618320611, -0.908396946565, -0.259541984733
1.649327039718628,-0.735019909668, 3.0765491333, 9.00938084717, 30.9618320611, -0.908396946565, -0.259541984733
1.6515181064605713,-0.735019909668, 3.0765491333, 9.00938084717, 30.9618320611, -0.908396946565, -0.259541984733
1.653203010559082,-0.735019909668, 3.0765491333, 9.00938084717, 30.9618320611, -0.908396946565, -0.259541984733
1.6549360752105713,-0.735019909668, 3.0765491333, 9.00938084717, 30.9618320611, -0.908396946565, -0.259541984733
1.6568150520324707,-0.735019909668, 3.0765491333, 9.00938084717, 30.9618320611, -0.908396946565, -0.259541984733
1.658555030822754,-0.735019909668, 3.0765491333, 9.00938084717, 30.9618320611, -0.908396946565, -0.259541984733
1.6602461338043213,-0.735019909668, 3.0765491333, 9.00938084717, 30.9618320611, -0.908396946565, -0.259541984733
1.6620831489562988,-0.735019909668, 3.0765491333, 9.00938084717, 30.9618320611, -0.908396946565, -0.259541984733
1.66367506980896,-0.735019909668, 3.0765491333, 9.00938084717, 30.9618320611, -0.908396946565, -0.259541984733
1.6651320457458496,-0.735019909668, 3.0765491333, 9.00938084717, 30.9618320611, -0.908396946565, -0.259541984733
1.6666460037231445,-0.735019909668, 3.0765491333, 9.00938084717, 30.9618320611, -0.908396946565, -0.259541984733
1.6686151027679443,-0.735019909668, 3.0765491333, 9.00938084717, 30.9618320611, -0.908396946565, -0.259541984733
1.6705801486968994,-0.735019909668, 3.0765491333, 9.00938084717, 30.9618320611, -0.908396946565, -0.259541984733
1.6744539737701416,-0.735019909668, 3.0765491333, 9.00938084717, 30.9618320611, -0.908396946565, -0.259541984733
1.677800178527832,-0.735019909668, 3.0765491333, 9.00938084717, 30.9618320611, -0.908396946565, -0.259541984733
1.6807901859283447,-0.735019909668, 3.0765491333, 9.00938084717, 30.9618320611, -0.908396946565, -0.259541984733
1.682582139968872,-0.735019909668, 3.0765491333, 9.00938084717, 30.9618320611, -0.908396946565, -0.259541984733
1.6841180324554443,-0.735019909668, 3.0765491333, 9.00938084717, 30.9618320611, -0.908396946565, -0.259541984733
1.6858220100402832,-0.735019909668, 3.0765491333, 9.00938084717, 30.9618320611, -0.908396946565, -0.259541984733
1.6874980926513672,-0.735019909668, 3.0765491333, 9.00938084717, 30.9618320611, -0.908396946565, -0.259541984733
1.6891000270843506,-0.735019909668, 3.0765491333, 9.00938084717, 30.9618320611, -0.908396946565, -0.259541984733
1.690613031387329,-0.735019909668, 3.0765491333, 9.00938084717, 30.9618320611, -0.908396946565, -0.259541984733
1.6922531127929688,-0.735019909668, 3.0765491333, 9.00938084717, 30.9618320611, -0.908396946565, -0.259541984733
1.6941111087799072,-0.735019909668, 3.0765491333, 9.00938084717, 30.9618320611, -0.908396946565, -0.259541984733
1.6957480907440186,-0.735019909668, 3.0765491333, 9.00938084717, 30.9618320611, -0.908396946565, -0.259541984733
1.6977851390838623,-0.735019909668, 3.0765491333, 9.00938084717, 30.9618320611, -0.908396946565, -0.259541984733
1.7034990787506104,-0.735019909668, 3.0765491333, 9.00938084717, 30.9618320611, -0.908396946565, -0.259541984733
1.7076849937438965,-0.735019909668, 3.0765491333, 9.00938084717, 30.9618320611, -0.908396946565, -0.259541984733
1.71311616897583,-0.735019909668, 3.0765491333, 9.00938084717, 30.9618320611, -0.908396946565, -0.259541984733
1.71592116355896,-0.735019909668, 3.0765491333, 9.00938084717, 30.9618320611, -0.908396946565, -0.259541984733
1.7219750881195068,-0.735019909668, 3.0765491333, 9.00938084717, 30.9618320611, -0.908396946565, -0.259541984733
1.7247271537780762,-0.735019909668, 3.0765491333, 9.00938084717, 30.9618320611, -0.908396946565, -0.259541984733
1.7268340587615967,-0.735019909668, 3.0765491333, 9.00938084717, 30.9618320611, -0.908396946565, -0.259541984733
1.7287859916687012,-0.735019909668, 3.0765491333, 9.00938084717, 30.9618320611, -0.908396946565, -0.259541984733
1.7312021255493164,-0.735019909668, 3.0765491333, 9.00938084717, 30.9618320611, -0.908396946565, -0.259541984733
1.7332510948181152,-0.735019909668, 3.0765491333, 9.00938084717, 30.9618320611, -0.908396946565, -0.259541984733
1.7403841018676758,-0.622492431641, 3.12682736816, 9.06684168701, 31.0381679389, -1.03816793893, -0.229007633588
1.7442879676818848,-0.622492431641, 3.12682736816, 9.06684168701, 31.0381679389, -1.03816793893, -0.229007633588
1.7463910579681396,-0.622492431641, 3.12682736816, 9.06684168701, 31.0381679389, -1.03816793893, -0.229007633588
1.7480230331420898,-0.622492431641, 3.12682736816, 9.06684168701, 31.0381679389, -1.03816793893, -0.229007633588
1.7499730587005615,-0.622492431641, 3.12682736816, 9.06684168701, 31.0381679389, -1.03816793893, -0.229007633588
1.7517621517181396,-0.622492431641, 3.12682736816, 9.06684168701, 31.0381679389, -1.03816793893, -0.229007633588
1.752974033355713,-0.622492431641, 3.12682736816, 9.06684168701, 31.0381679389, -1.03816793893, -0.229007633588
1.754127025604248,-0.622492431641, 3.12682736816, 9.06684168701, 31.0381679389, -1.03816793893, -0.229007633588
1.75514817237854,-0.622492431641, 3.12682736816, 9.06684168701, 31.0381679389, -1.03816793893, -0.229007633588
1.7563741207122803,-0.622492431641, 3.12682736816, 9.06684168701, 31.0381679389, -1.03816793893, -0.229007633588
1.7580301761627197,-0.622492431641, 3.12682736816, 9.06684168701, 31.0381679389, -1.03816793893, -0.229007633588
1.7598390579223633,-0.622492431641, 3.12682736816, 9.06684168701, 31.0381679389, -1.03816793893, -0.229007633588
1.7645201683044434,-0.622492431641, 3.12682736816, 9.06684168701, 31.0381679389, -1.03816793893, -0.229007633588
1.7673990726470947,-0.622492431641, 3.12682736816, 9.06684168701, 31.0381679389, -1.03816793893, -0.229007633588
1.7701380252838135,-0.622492431641, 3.12682736816, 9.06684168701, 31.0381679389, -1.03816793893, -0.229007633588
1.7717790603637695,-0.622492431641, 3.12682736816, 9.06684168701, 31.0381679389, -1.03816793893, -0.229007633588
1.7733550071716309,-0.622492431641, 3.12682736816, 9.06684168701, 31.0381679389, -1.03816793893, -0.229007633588
1.7751760482788086,-0.622492431641, 3.12682736816, 9.06684168701, 31.0381679389, -1.03816793893, -0.229007633588
1.7771010398864746,-0.622492431641, 3.12682736816, 9.06684168701, 31.0381679389, -1.03816793893, -0.229007633588
1.7790861129760742,-0.622492431641, 3.12682736816, 9.06684168701, 31.0381679389, -1.03816793893, -0.229007633588
1.780670166015625,-0.622492431641, 3.12682736816, 9.06684168701, 31.0381679389, -1.03816793893, -0.229007633588
1.782371997833252,-0.622492431641, 3.12682736816, 9.06684168701, 31.0381679389, -1.03816793893, -0.229007633588
1.783912181854248,-0.622492431641, 3.12682736816, 9.06684168701, 31.0381679389, -1.03816793893, -0.229007633588
1.785762071609497,-0.622492431641, 3.12682736816, 9.06684168701, 31.0381679389, -1.03816793893, -0.229007633588
1.7872099876403809,-0.622492431641, 3.12682736816, 9.06684168701, 31.0381679389, -1.03816793893, -0.229007633588
1.78851318359375,-0.622492431641, 3.12682736816, 9.06684168701, 31.0381679389, -1.03816793893, -0.229007633588
1.7909681797027588,-0.622492431641, 3.12682736816, 9.06684168701, 31.0381679389, -1.03816793893, -0.229007633588
1.7952311038970947,-0.622492431641, 3.12682736816, 9.06684168701, 31.0381679389, -1.03816793893, -0.229007633588
1.8024091720581055,-0.622492431641, 3.12682736816, 9.06684168701, 31.0381679389, -1.03816793893, -0.229007633588
1.8043010234832764,-0.622492431641, 3.12682736816, 9.06684168701, 31.0381679389, -1.03816793893, -0.229007633588
1.8057830333709717,-0.622492431641, 3.12682736816, 9.06684168701, 31.0381679389, -1.03816793893, -0.229007633588
1.8076350688934326,-0.622492431641, 3.12682736816, 9.06684168701, 31.0381679389, -1.03816793893, -0.229007633588
1.8101229667663574,-0.622492431641, 3.12682736816, 9.06684168701, 31.0381679389, -1.03816793893, -0.229007633588
1.8126599788665771,-0.622492431641, 3.12682736816, 9.06684168701, 31.0381679389, -1.03816793893, -0.229007633588
1.8148009777069092,-0.622492431641, 3.12682736816, 9.06684168701, 31.0381679389, -1.03816793893, -0.229007633588
1.818006992340088,-0.622492431641, 3.12682736816, 9.06684168701, 31.0381679389, -1.03816793893, -0.229007633588
1.8197290897369385,-0.622492431641, 3.12682736816, 9.06684168701, 31.0381679389, -1.03816793893, -0.229007633588
1.8340201377868652,-0.718260498047, 3.03824190674, 9.17458076172, 30.9541984733, -0.93893129771, -0.251908396947
1.8375270366668701,-0.718260498047, 3.03824190674, 9.17458076172, 30.9541984733, -0.93893129771, -0.251908396947
1.8392040729522705,-0.718260498047, 3.03824190674, 9.17458076172, 30.9541984733, -0.93893129771, -0.251908396947
1.8411149978637695,-0.718260498047, 3.03824190674, 9.17458076172, 30.9541984733, -0.93893129771, -0.251908396947
1.8427541255950928,-0.718260498047, 3.03824190674, 9.17458076172, 30.9541984733, -0.93893129771, -0.251908396947
1.8444280624389648,-0.718260498047, 3.03824190674, 9.17458076172, 30.9541984733, -0.93893129771, -0.251908396947
1.846191167831421,-0.718260498047, 3.03824190674, 9.17458076172, 30.9541984733, -0.93893129771, -0.251908396947
1.8477230072021484,-0.718260498047, 3.03824190674, 9.17458076172, 30.9541984733, -0.93893129771, -0.251908396947
1.8492159843444824,-0.718260498047, 3.03824190674, 9.17458076172, 30.9541984733, -0.93893129771, -0.251908396947
1.850538969039917,-0.718260498047, 3.03824190674, 9.17458076172, 30.9541984733, -0.93893129771, -0.251908396947
1.8526110649108887,-0.718260498047, 3.03824190674, 9.17458076172, 30.9541984733, -0.93893129771, -0.251908396947
1.8543100357055664,-0.718260498047, 3.03824190674, 9.17458076172, 30.9541984733, -0.93893129771, -0.251908396947
1.8566360473632812,-0.718260498047, 3.03824190674, 9.17458076172, 30.9541984733, -0.93893129771, -0.251908396947
1.8590691089630127,-0.718260498047, 3.03824190674, 9.17458076172, 30.9541984733, -0.93893129771, -0.251908396947
1.863914966583252,-0.718260498047, 3.03824190674, 9.17458076172, 30.9541984733, -0.93893129771, -0.251908396947
1.867159128189087,-0.718260498047, 3.03824190674, 9.17458076172, 30.9541984733, -0.93893129771, -0.251908396947
1.8703761100769043,-0.718260498047, 3.03824190674, 9.17458076172, 30.9541984733, -0.93893129771, -0.251908396947
1.872178077697754,-0.718260498047, 3.03824190674, 9.17458076172, 30.9541984733, -0.93893129771, -0.251908396947
1.8742260932922363,-0.718260498047, 3.03824190674, 9.17458076172, 30.9541984733, -0.93893129771, -0.251908396947
1.8760130405426025,-0.718260498047, 3.03824190674, 9.17458076172, 30.9541984733, -0.93893129771, -0.251908396947
1.877514123916626,-0.718260498047, 3.03824190674, 9.17458076172, 30.9541984733, -0.93893129771, -0.251908396947
1.8786051273345947,-0.718260498047, 3.03824190674, 9.17458076172, 30.9541984733, -0.93893129771, -0.251908396947
1.8796641826629639,-0.718260498047, 3.03824190674, 9.17458076172, 30.9541984733, -0.93893129771, -0.251908396947
1.881303071975708,-0.718260498047, 3.03824190674, 9.17458076172, 30.9541984733, -0.93893129771, -0.251908396947
1.8827431201934814,-0.718260498047, 3.03824190674, 9.17458076172, 30.9541984733, -0.93893129771, -0.251908396947
1.8837721347808838,-0.718260498047, 3.03824190674, 9.17458076172, 30.9541984733, -0.93893129771, -0.251908396947
1.885451078414917,-0.718260498047, 3.03824190674, 9.17458076172, 30.9541984733, -0.93893129771, -0.251908396947
1.887434959411621,-0.718260498047, 3.03824190674, 9.17458076172, 30.9541984733, -0.93893129771, -0.251908396947
1.891113042831421,-0.718260498047, 3.03824190674, 9.17458076172, 30.9541984733, -0.93893129771, -0.251908396947
1.8938241004943848,-0.718260498047, 3.03824190674, 9.17458076172, 30.9541984733, -0.93893129771, -0.251908396947
1.8961801528930664,-0.718260498047, 3.03824190674, 9.17458076172, 30.9541984733, -0.93893129771, -0.251908396947
1.8977479934692383,-0.718260498047, 3.03824190674, 9.17458076172, 30.9541984733, -0.93893129771, -0.251908396947
1.903182029724121,-0.718260498047, 3.03824190674, 9.17458076172, 30.9541984733, -0.93893129771, -0.251908396947
1.9048471450805664,-0.718260498047, 3.03824190674, 9.17458076172, 30.9541984733, -0.93893129771, -0.251908396947
1.9064080715179443,-0.718260498047, 3.03824190674, 9.17458076172, 30.9541984733, -0.93893129771, -0.251908396947
1.9090571403503418,-0.718260498047, 3.03824190674, 9.17458076172, 30.9541984733, -0.93893129771, -0.251908396947
1.9117271900177002,-0.718260498047, 3.03824190674, 9.17458076172, 30.9541984733, -0.93893129771, -0.251908396947
1.9141061305999756,-0.718260498047, 3.03824190674, 9.17458076172, 30.9541984733, -0.93893129771, -0.251908396947
1.917513132095337,-0.718260498047, 3.03824190674, 9.17458076172, 30.9541984733, -0.93893129771, -0.251908396947
1.919558048248291,-0.718260498047, 3.03824190674, 9.17458076172, 30.9541984733, -0.93893129771, -0.251908396947
1.933199167251587,-0.718260498047, 3.06936652832, 9.09078370361, 31.1374045802, -0.954198473282, -0.198473282443
1.9349651336669922,-0.718260498047, 3.06936652832, 9.09078370361, 31.1374045802, -0.954198473282, -0.198473282443
1.9367480278015137,-0.718260498047, 3.06936652832, 9.09078370361, 31.1374045802, -0.954198473282, -0.198473282443
1.9423301219940186,-0.718260498047, 3.06936652832, 9.09078370361, 31.1374045802, -0.954198473282, -0.198473282443
1.9443621635437012,-0.718260498047, 3.06936652832, 9.09078370361, 31.1374045802, -0.954198473282, -0.198473282443
1.946242094039917,-0.718260498047, 3.06936652832, 9.09078370361, 31.1374045802, -0.954198473282, -0.198473282443
1.9485340118408203,-0.718260498047, 3.06936652832, 9.09078370361, 31.1374045802, -0.954198473282, -0.198473282443
1.9509930610656738,-0.718260498047, 3.06936652832, 9.09078370361, 31.1374045802, -0.954198473282, -0.198473282443
1.955038070678711,-0.718260498047, 3.06936652832, 9.09078370361, 31.1374045802, -0.954198473282, -0.198473282443
1.957813024520874,-0.718260498047, 3.06936652832, 9.09078370361, 31.1374045802, -0.954198473282, -0.198473282443
1.9611930847167969,-0.718260498047, 3.06936652832, 9.09078370361, 31.1374045802, -0.954198473282, -0.198473282443
1.9639110565185547,-0.718260498047, 3.06936652832, 9.09078370361, 31.1374045802, -0.954198473282, -0.198473282443
1.9654431343078613,-0.718260498047, 3.06936652832, 9.09078370361, 31.1374045802, -0.954198473282, -0.198473282443
1.9678940773010254,-0.718260498047, 3.06936652832, 9.09078370361, 31.1374045802, -0.954198473282, -0.198473282443
1.969552993774414,-0.718260498047, 3.06936652832, 9.09078370361, 31.1374045802, -0.954198473282, -0.198473282443
1.971647024154663,-0.718260498047, 3.06936652832, 9.09078370361, 31.1374045802, -0.954198473282, -0.198473282443
1.9736270904541016,-0.718260498047, 3.06936652832, 9.09078370361, 31.1374045802, -0.954198473282, -0.198473282443
1.9760479927062988,-0.718260498047, 3.06936652832, 9.09078370361, 31.1374045802, -0.954198473282, -0.198473282443
1.9782130718231201,-0.718260498047, 3.06936652832, 9.09078370361, 31.1374045802, -0.954198473282, -0.198473282443
1.9812500476837158,-0.718260498047, 3.06936652832, 9.09078370361, 31.1374045802, -0.954198473282, -0.198473282443
1.9856879711151123,-0.718260498047, 3.06936652832, 9.09078370361, 31.1374045802, -0.954198473282, -0.198473282443
1.988556146621704,-0.718260498047, 3.06936652832, 9.09078370361, 31.1374045802, -0.954198473282, -0.198473282443
1.9913840293884277,-0.718260498047, 3.06936652832, 9.09078370361, 31.1374045802, -0.954198473282, -0.198473282443
1.9970791339874268,-0.718260498047, 3.06936652832, 9.09078370361, 31.1374045802, -0.954198473282, -0.198473282443
1.9988031387329102,-0.718260498047, 3.06936652832, 9.09078370361, 31.1374045802, -0.954198473282, -0.198473282443
2.0010621547698975,-0.718260498047, 3.06936652832, 9.09078370361, 31.1374045802, -0.954198473282, -0.198473282443
2.002664089202881,-0.718260498047, 3.06936652832, 9.09078370361, 31.1374045802, -0.954198473282, -0.198473282443
2.004716157913208,-0.718260498047, 3.06936652832, 9.09078370361, 31.1374045802, -0.954198473282, -0.198473282443
2.006355047225952,-0.718260498047, 3.06936652832, 9.09078370361, 31.1374045802, -0.954198473282, -0.198473282443
2.0086829662323,-0.718260498047, 3.06936652832, 9.09078370361, 31.1374045802, -0.954198473282, -0.198473282443
2.0144951343536377,-0.718260498047, 3.06936652832, 9.09078370361, 31.1374045802, -0.954198473282, -0.198473282443
2.023390054702759,-0.718260498047, 3.06936652832, 9.09078370361, 31.1374045802, -0.954198473282, -0.198473282443
2.025521993637085,-0.718260498047, 3.06936652832, 9.09078370361, 31.1374045802, -0.954198473282, -0.198473282443
2.03075909614563,-0.677559069824, 3.10288535156, 9.01656345215, 31.0534351145, -0.832061068702, -0.236641221374
2.0327110290527344,-0.677559069824, 3.10288535156, 9.01656345215, 31.0534351145, -0.832061068702, -0.236641221374
2.0343141555786133,-0.677559069824, 3.10288535156, 9.01656345215, 31.0534351145, -0.832061068702, -0.236641221374
2.036107063293457,-0.677559069824, 3.10288535156, 9.01656345215, 31.0534351145, -0.832061068702, -0.236641221374
2.037899971008301,-0.677559069824, 3.10288535156, 9.01656345215, 31.0534351145, -0.832061068702, -0.236641221374
2.039821147918701,-0.677559069824, 3.10288535156, 9.01656345215, 31.0534351145, -0.832061068702, -0.236641221374
2.042239189147949,-0.677559069824, 3.10288535156, 9.01656345215, 31.0534351145, -0.832061068702, -0.236641221374
2.045314073562622,-0.677559069824, 3.10288535156, 9.01656345215, 31.0534351145, -0.832061068702, -0.236641221374
2.0496301651000977,-0.677559069824, 3.10288535156, 9.01656345215, 31.0534351145, -0.832061068702, -0.236641221374
2.053377151489258,-0.677559069824, 3.10288535156, 9.01656345215, 31.0534351145, -0.832061068702, -0.236641221374
2.0559420585632324,-0.677559069824, 3.10288535156, 9.01656345215, 31.0534351145, -0.832061068702, -0.236641221374
2.0583901405334473,-0.677559069824, 3.10288535156, 9.01656345215, 31.0534351145, -0.832061068702, -0.236641221374
2.060218095779419,-0.677559069824, 3.10288535156, 9.01656345215, 31.0534351145, -0.832061068702, -0.236641221374
2.0622000694274902,-0.677559069824, 3.10288535156, 9.01656345215, 31.0534351145, -0.832061068702, -0.236641221374
2.0640721321105957,-0.677559069824, 3.10288535156, 9.01656345215, 31.0534351145, -0.832061068702, -0.236641221374
2.0664119720458984,-0.677559069824, 3.10288535156, 9.01656345215, 31.0534351145, -0.832061068702, -0.236641221374
2.0688490867614746,-0.677559069824, 3.10288535156, 9.01656345215, 31.0534351145, -0.832061068702, -0.236641221374
2.0716631412506104,-0.677559069824, 3.10288535156, 9.01656345215, 31.0534351145, -0.832061068702, -0.236641221374
2.076876163482666,-0.677559069824, 3.10288535156, 9.01656345215, 31.0534351145, -0.832061068702, -0.236641221374
2.0799741744995117,-0.677559069824, 3.10288535156, 9.01656345215, 31.0534351145, -0.832061068702, -0.236641221374
2.0826210975646973,-0.677559069824, 3.10288535156, 9.01656345215, 31.0534351145, -0.832061068702, -0.236641221374
2.0843381881713867,-0.677559069824, 3.10288535156, 9.01656345215, 31.0534351145, -0.832061068702, -0.236641221374
2.0860440731048584,-0.677559069824, 3.10288535156, 9.01656345215, 31.0534351145, -0.832061068702, -0.236641221374
2.087700128555298,-0.677559069824, 3.10288535156, 9.01656345215, 31.0534351145, -0.832061068702, -0.236641221374
2.089243173599243,-0.677559069824, 3.10288535156, 9.01656345215, 31.0534351145, -0.832061068702, -0.236641221374
2.090999126434326,-0.677559069824, 3.10288535156, 9.01656345215, 31.0534351145, -0.832061068702, -0.236641221374
2.092724084854126,-0.677559069824, 3.10288535156, 9.01656345215, 31.0534351145, -0.832061068702, -0.236641221374
2.099513053894043,-0.677559069824, 3.10288535156, 9.01656345215, 31.0534351145, -0.832061068702, -0.236641221374
2.1020710468292236,-0.677559069824, 3.10288535156, 9.01656345215, 31.0534351145, -0.832061068702, -0.236641221374
2.104635000228882,-0.677559069824, 3.10288535156, 9.01656345215, 31.0534351145, -0.832061068702, -0.236641221374
2.10801100730896,-0.677559069824, 3.10288535156, 9.01656345215, 31.0534351145, -0.832061068702, -0.236641221374
2.111441135406494,-0.677559069824, 3.10288535156, 9.01656345215, 31.0534351145, -0.832061068702, -0.236641221374
2.1145951747894287,-0.677559069824, 3.10288535156, 9.01656345215, 31.0534351145, -0.832061068702, -0.236641221374
2.117772102355957,-0.677559069824, 3.10288535156, 9.01656345215, 31.0534351145, -0.832061068702, -0.236641221374
2.1293439865112305,-0.720654699707, 3.03345350342, 8.96867941895, 30.9541984733, -1.04580152672, -0.175572519084
2.131361961364746,-0.720654699707, 3.03345350342, 8.96867941895, 30.9541984733, -1.04580152672, -0.175572519084
2.1325809955596924,-0.720654699707, 3.03345350342, 8.96867941895, 30.9541984733, -1.04580152672, -0.175572519084
2.13364315032959,-0.720654699707, 3.03345350342, 8.96867941895, 30.9541984733, -1.04580152672, -0.175572519084
2.1347010135650635,-0.720654699707, 3.03345350342, 8.96867941895, 30.9541984733, -1.04580152672, -0.175572519084
2.135759115219116,-0.720654699707, 3.03345350342, 8.96867941895, 30.9541984733, -1.04580152672, -0.175572519084
2.1372170448303223,-0.720654699707, 3.03345350342, 8.96867941895, 30.9541984733, -1.04580152672, -0.175572519084
2.1388251781463623,-0.720654699707, 3.03345350342, 8.96867941895, 30.9541984733, -1.04580152672, -0.175572519084
2.1406960487365723,-0.720654699707, 3.03345350342, 8.96867941895, 30.9541984733, -1.04580152672, -0.175572519084
2.1442840099334717,-0.720654699707, 3.03345350342, 8.96867941895, 30.9541984733, -1.04580152672, -0.175572519084
2.147274971008301,-0.720654699707, 3.03345350342, 8.96867941895, 30.9541984733, -1.04580152672, -0.175572519084
2.1495590209960938,-0.720654699707, 3.03345350342, 8.96867941895, 30.9541984733, -1.04580152672, -0.175572519084
2.1524031162261963,-0.720654699707, 3.03345350342, 8.96867941895, 30.9541984733, -1.04580152672, -0.175572519084
2.154287099838257,-0.720654699707, 3.03345350342, 8.96867941895, 30.9541984733, -1.04580152672, -0.175572519084
2.1555521488189697,-0.720654699707, 3.03345350342, 8.96867941895, 30.9541984733, -1.04580152672, -0.175572519084
2.157215118408203,-0.720654699707, 3.03345350342, 8.96867941895, 30.9541984733, -1.04580152672, -0.175572519084
2.158884048461914,-0.720654699707, 3.03345350342, 8.96867941895, 30.9541984733, -1.04580152672, -0.175572519084
2.1604230403900146,-0.720654699707, 3.03345350342, 8.96867941895, 30.9541984733, -1.04580152672, -0.175572519084
2.1618661880493164,-0.720654699707, 3.03345350342, 8.96867941895, 30.9541984733, -1.04580152672, -0.175572519084
2.163290023803711,-0.720654699707, 3.03345350342, 8.96867941895, 30.9541984733, -1.04580152672, -0.175572519084
2.165217161178589,-0.720654699707, 3.03345350342, 8.96867941895, 30.9541984733, -1.04580152672, -0.175572519084
2.168776035308838,-0.720654699707, 3.03345350342, 8.96867941895, 30.9541984733, -1.04580152672, -0.175572519084
2.171488046646118,-0.720654699707, 3.03345350342, 8.96867941895, 30.9541984733, -1.04580152672, -0.175572519084
2.1740541458129883,-0.720654699707, 3.03345350342, 8.96867941895, 30.9541984733, -1.04580152672, -0.175572519084
2.1759791374206543,-0.720654699707, 3.03345350342, 8.96867941895, 30.9541984733, -1.04580152672, -0.175572519084
2.177572011947632,-0.720654699707, 3.03345350342, 8.96867941895, 30.9541984733, -1.04580152672, -0.175572519084
2.178929090499878,-0.720654699707, 3.03345350342, 8.96867941895, 30.9541984733, -1.04580152672, -0.175572519084
2.180338144302368,-0.720654699707, 3.03345350342, 8.96867941895, 30.9541984733, -1.04580152672, -0.175572519084
2.1819000244140625,-0.720654699707, 3.03345350342, 8.96867941895, 30.9541984733, -1.04580152672, -0.175572519084
2.1834211349487305,-0.720654699707, 3.03345350342, 8.96867941895, 30.9541984733, -1.04580152672, -0.175572519084
2.1847400665283203,-0.720654699707, 3.03345350342, 8.96867941895, 30.9541984733, -1.04580152672, -0.175572519084
2.1861090660095215,-0.720654699707, 3.03345350342, 8.96867941895, 30.9541984733, -1.04580152672, -0.175572519084
2.187885046005249,-0.720654699707, 3.03345350342, 8.96867941895, 30.9541984733, -1.04580152672, -0.175572519084
2.1891870498657227,-0.720654699707, 3.03345350342, 8.96867941895, 30.9541984733, -1.04580152672, -0.175572519084
2.190664052963257,-0.720654699707, 3.03345350342, 8.96867941895, 30.9541984733, -1.04580152672, -0.175572519084
2.19238018989563,-0.720654699707, 3.03345350342, 8.96867941895, 30.9541984733, -1.04580152672, -0.175572519084
2.199655055999756,-0.720654699707, 3.03345350342, 8.96867941895, 30.9541984733, -1.04580152672, -0.175572519084
2.2034270763397217,-0.720654699707, 3.03345350342, 8.96867941895, 30.9541984733, -1.04580152672, -0.175572519084
2.2061519622802734,-0.720654699707, 3.03345350342, 8.96867941895, 30.9541984733, -1.04580152672, -0.175572519084
2.2080459594726562,-0.720654699707, 3.03345350342, 8.96867941895, 30.9541984733, -1.04580152672, -0.175572519084
2.209656000137329,-0.720654699707, 3.03345350342, 8.96867941895, 30.9541984733, -1.04580152672, -0.175572519084
2.211688995361328,-0.720654699707, 3.03345350342, 8.96867941895, 30.9541984733, -1.04580152672, -0.175572519084
2.2131850719451904,-0.720654699707, 3.03345350342, 8.96867941895, 30.9541984733, -1.04580152672, -0.175572519084
2.2155890464782715,-0.720654699707, 3.03345350342, 8.96867941895, 30.9541984733, -1.04580152672, -0.175572519084
2.2213051319122314,-0.720654699707, 3.03345350342, 8.96867941895, 30.9541984733, -1.04580152672, -0.175572519084
2.2273430824279785,-0.746990917969, 3.0885201416, 8.99740983887, 30.9389312977, -1.17557251908, -0.320610687023
2.229254961013794,-0.746990917969, 3.0885201416, 8.99740983887, 30.9389312977, -1.17557251908, -0.320610687023
2.2316830158233643,-0.746990917969, 3.0885201416, 8.99740983887, 30.9389312977, -1.17557251908, -0.320610687023
2.23386812210083,-0.746990917969, 3.0885201416, 8.99740983887, 30.9389312977, -1.17557251908, -0.320610687023
2.236572027206421,-0.746990917969, 3.0885201416, 8.99740983887, 30.9389312977, -1.17557251908, -0.320610687023
2.2411131858825684,-0.746990917969, 3.0885201416, 8.99740983887, 30.9389312977, -1.17557251908, -0.320610687023
2.2441930770874023,-0.746990917969, 3.0885201416, 8.99740983887, 30.9389312977, -1.17557251908, -0.320610687023
2.2471201419830322,-0.746990917969, 3.0885201416, 8.99740983887, 30.9389312977, -1.17557251908, -0.320610687023
2.2496249675750732,-0.746990917969, 3.0885201416, 8.99740983887, 30.9389312977, -1.17557251908, -0.320610687023
2.251939058303833,-0.746990917969, 3.0885201416, 8.99740983887, 30.9389312977, -1.17557251908, -0.320610687023
2.2540831565856934,-0.746990917969, 3.0885201416, 8.99740983887, 30.9389312977, -1.17557251908, -0.320610687023
2.2566370964050293,-0.746990917969, 3.0885201416, 8.99740983887, 30.9389312977, -1.17557251908, -0.320610687023
2.260343074798584,-0.746990917969, 3.0885201416, 8.99740983887, 30.9389312977, -1.17557251908, -0.320610687023
2.2640960216522217,-0.746990917969, 3.0885201416, 8.99740983887, 30.9389312977, -1.17557251908, -0.320610687023
2.2675089836120605,-0.746990917969, 3.0885201416, 8.99740983887, 30.9389312977, -1.17557251908, -0.320610687023
2.2702951431274414,-0.746990917969, 3.0885201416, 8.99740983887, 30.9389312977, -1.17557251908, -0.320610687023
2.2722771167755127,-0.746990917969, 3.0885201416, 8.99740983887, 30.9389312977, -1.17557251908, -0.320610687023
2.2744181156158447,-0.746990917969, 3.0885201416, 8.99740983887, 30.9389312977, -1.17557251908, -0.320610687023
2.276309013366699,-0.746990917969, 3.0885201416, 8.99740983887, 30.9389312977, -1.17557251908, -0.320610687023
2.27822208404541,-0.746990917969, 3.0885201416, 8.99740983887, 30.9389312977, -1.17557251908, -0.320610687023
2.2802960872650146,-0.746990917969, 3.0885201416, 8.99740983887, 30.9389312977, -1.17557251908, -0.320610687023
2.283529043197632,-0.746990917969, 3.0885201416, 8.99740983887, 30.9389312977, -1.17557251908, -0.320610687023
2.286058187484741,-0.746990917969, 3.0885201416, 8.99740983887, 30.9389312977, -1.17557251908, -0.320610687023
2.2883431911468506,-0.746990917969, 3.0885201416, 8.99740983887, 30.9389312977, -1.17557251908, -0.320610687023
2.2914199829101562,-0.746990917969, 3.0885201416, 8.99740983887, 30.9389312977, -1.17557251908, -0.320610687023
2.295340061187744,-0.746990917969, 3.0885201416, 8.99740983887, 30.9389312977, -1.17557251908, -0.320610687023
2.299065113067627,-0.746990917969, 3.0885201416, 8.99740983887, 30.9389312977, -1.17557251908, -0.320610687023
2.305246114730835,-0.746990917969, 3.0885201416, 8.99740983887, 30.9389312977, -1.17557251908, -0.320610687023
2.3070180416107178,-0.746990917969, 3.0885201416, 8.99740983887, 30.9389312977, -1.17557251908, -0.320610687023
2.3089451789855957,-0.746990917969, 3.0885201416, 8.99740983887, 30.9389312977, -1.17557251908, -0.320610687023
2.3110570907592773,-0.746990917969, 3.0885201416, 8.99740983887, 30.9389312977, -1.17557251908, -0.320610687023
2.3131980895996094,-0.746990917969, 3.0885201416, 8.99740983887, 30.9389312977, -1.17557251908, -0.320610687023
2.3160719871520996,-0.746990917969, 3.0885201416, 8.99740983887, 30.9389312977, -1.17557251908, -0.320610687023
2.3222100734710693,-0.746990917969, 3.0885201416, 8.99740983887, 30.9389312977, -1.17557251908, -0.320610687023
2.3304691314697266,-0.689530078125, 3.1004911499, 9.01177504883, 30.9312977099, -0.893129770992, -0.229007633588
2.332751989364624,-0.689530078125, 3.1004911499, 9.01177504883, 30.9312977099, -0.893129770992, -0.229007633588
2.3341290950775146,-0.689530078125, 3.1004911499, 9.01177504883, 30.9312977099, -0.893129770992, -0.229007633588
2.335416078567505,-0.689530078125, 3.1004911499, 9.01177504883, 30.9312977099, -0.893129770992, -0.229007633588
2.336719036102295,-0.689530078125, 3.1004911499, 9.01177504883, 30.9312977099, -0.893129770992, -0.229007633588
2.338759183883667,-0.689530078125, 3.1004911499, 9.01177504883, 30.9312977099, -0.893129770992, -0.229007633588
2.3404760360717773,-0.689530078125, 3.1004911499, 9.01177504883, 30.9312977099, -0.893129770992, -0.229007633588
2.3419041633605957,-0.689530078125, 3.1004911499, 9.01177504883, 30.9312977099, -0.893129770992, -0.229007633588
2.3431921005249023,-0.689530078125, 3.1004911499, 9.01177504883, 30.9312977099, -0.893129770992, -0.229007633588
2.345062017440796,-0.689530078125, 3.1004911499, 9.01177504883, 30.9312977099, -0.893129770992, -0.229007633588
2.346351146697998,-0.689530078125, 3.1004911499, 9.01177504883, 30.9312977099, -0.893129770992, -0.229007633588
2.347815990447998,-0.689530078125, 3.1004911499, 9.01177504883, 30.9312977099, -0.893129770992, -0.229007633588
2.350180149078369,-0.689530078125, 3.1004911499, 9.01177504883, 30.9312977099, -0.893129770992, -0.229007633588
2.352288007736206,-0.689530078125, 3.1004911499, 9.01177504883, 30.9312977099, -0.893129770992, -0.229007633588
2.355571985244751,-0.689530078125, 3.1004911499, 9.01177504883, 30.9312977099, -0.893129770992, -0.229007633588
2.359377145767212,-0.689530078125, 3.1004911499, 9.01177504883, 30.9312977099, -0.893129770992, -0.229007633588
2.361992120742798,-0.689530078125, 3.1004911499, 9.01177504883, 30.9312977099, -0.893129770992, -0.229007633588
2.3647069931030273,-0.689530078125, 3.1004911499, 9.01177504883, 30.9312977099, -0.893129770992, -0.229007633588
2.366589069366455,-0.689530078125, 3.1004911499, 9.01177504883, 30.9312977099, -0.893129770992, -0.229007633588
2.368720054626465,-0.689530078125, 3.1004911499, 9.01177504883, 30.9312977099, -0.893129770992, -0.229007633588
2.3705191612243652,-0.689530078125, 3.1004911499, 9.01177504883, 30.9312977099, -0.893129770992, -0.229007633588
2.372792959213257,-0.689530078125, 3.1004911499, 9.01177504883, 30.9312977099, -0.893129770992, -0.229007633588
2.3749911785125732,-0.689530078125, 3.1004911499, 9.01177504883, 30.9312977099, -0.893129770992, -0.229007633588
2.3769161701202393,-0.689530078125, 3.1004911499, 9.01177504883, 30.9312977099, -0.893129770992, -0.229007633588
2.379002094268799,-0.689530078125, 3.1004911499, 9.01177504883, 30.9312977099, -0.893129770992, -0.229007633588
2.3817691802978516,-0.689530078125, 3.1004911499, 9.01177504883, 30.9312977099, -0.893129770992, -0.229007633588
2.385730028152466,-0.689530078125, 3.1004911499, 9.01177504883, 30.9312977099, -0.893129770992, -0.229007633588
2.3889331817626953,-0.689530078125, 3.1004911499, 9.01177504883, 30.9312977099, -0.893129770992, -0.229007633588
2.391461133956909,-0.689530078125, 3.1004911499, 9.01177504883, 30.9312977099, -0.893129770992, -0.229007633588
2.3981921672821045,-0.689530078125, 3.1004911499, 9.01177504883, 30.9312977099, -0.893129770992, -0.229007633588
2.400254964828491,-0.689530078125, 3.1004911499, 9.01177504883, 30.9312977099, -0.893129770992, -0.229007633588
2.4024269580841064,-0.689530078125, 3.1004911499, 9.01177504883, 30.9312977099, -0.893129770992, -0.229007633588
2.404306173324585,-0.689530078125, 3.1004911499, 9.01177504883, 30.9312977099, -0.893129770992, -0.229007633588
2.4063570499420166,-0.689530078125, 3.1004911499, 9.01177504883, 30.9312977099, -0.893129770992, -0.229007633588
2.408668041229248,-0.689530078125, 3.1004911499, 9.01177504883, 30.9312977099, -0.893129770992, -0.229007633588
2.4111900329589844,-0.689530078125, 3.1004911499, 9.01177504883, 30.9312977099, -0.893129770992, -0.229007633588
2.413923978805542,-0.689530078125, 3.1004911499, 9.01177504883, 30.9312977099, -0.893129770992, -0.229007633588
2.416753053665161,-0.689530078125, 3.1004911499, 9.01177504883, 30.9312977099, -0.893129770992, -0.229007633588
2.4314870834350586,-0.713472094727, 3.12922156982, 8.97586202393, 30.9618320611, -1.19847328244, -0.206106870229
2.4336130619049072,-0.713472094727, 3.12922156982, 8.97586202393, 30.9618320611, -1.19847328244, -0.206106870229
2.4356889724731445,-0.713472094727, 3.12922156982, 8.97586202393, 30.9618320611, -1.19847328244, -0.206106870229
2.437796115875244,-0.713472094727, 3.12922156982, 8.97586202393, 30.9618320611, -1.19847328244, -0.206106870229
2.443510055541992,-0.713472094727, 3.12922156982, 8.97586202393, 30.9618320611, -1.19847328244, -0.206106870229
2.446094036102295,-0.713472094727, 3.12922156982, 8.97586202393, 30.9618320611, -1.19847328244, -0.206106870229
2.451045036315918,-0.713472094727, 3.12922156982, 8.97586202393, 30.9618320611, -1.19847328244, -0.206106870229
2.455533027648926,-0.713472094727, 3.12922156982, 8.97586202393, 30.9618320611, -1.19847328244, -0.206106870229
