time,acceX,acceY,acceZ,gyroX,gyroY,gyroZ
0.05552196502685547,,0,0,0,0
0.061637163162231445,,0,0,0,0
0.06753301620483398,,0,0,0,0
0.07762598991394043,,0,0,0,0
0.09244608879089355,,0,0,0,0
0.09541702270507812,,0,0,0,0
0.09673500061035156,,0,0,0,0
0.09792804718017578,,0,0,0,0
0.09917402267456055,,0,0,0,0
0.10041117668151855,,0,0,0,0
0.10178709030151367,,0,0,0,0
0.10281014442443848,,0,0,0,0
0.10437917709350586,,0,0,0,0
0.10668396949768066,,0,0,0,0
0.10784602165222168,,0,0,0,0
0.10895705223083496,,0,0,0,0
0.11000609397888184,,0,0,0,0
0.11116504669189453,,0,0,0,0
0.1122901439666748,,0,0,0,0
0.11323714256286621,,0,0,0,0
0.11425113677978516,,0,0,0,0
0.11525702476501465,,0,0,0,0
0.11714506149291992,1.43891519775, 0.263362182617, 9.52652840576, -0.87786259542, -1.11450381679, -0.312977099237
0.11828899383544922,1.43891519775, 0.263362182617, 9.52652840576, -0.87786259542, -1.11450381679, -0.312977099237
0.1193091869354248,1.43891519775, 0.263362182617, 9.52652840576, -0.87786259542, -1.11450381679, -0.312977099237
0.12026309967041016,1.43891519775, 0.263362182617, 9.52652840576, -0.87786259542, -1.11450381679, -0.312977099237
0.12144112586975098,1.43891519775, 0.263362182617, 9.52652840576, -0.87786259542, -1.11450381679, -0.312977099237
0.12272095680236816,1.43891519775, 0.263362182617, 9.52652840576, -0.87786259542, -1.11450381679, -0.312977099237
0.1241309642791748,1.43891519775, 0.263362182617, 9.52652840576, -0.87786259542, -1.11450381679, -0.312977099237
0.12561607360839844,1.43891519775, 0.263362182617, 9.52652840576, -0.87786259542, -1.11450381679, -0.312977099237
0.1296839714050293,1.43891519775, 0.263362182617, 9.52652840576, -0.87786259542, -1.11450381679, -0.312977099237
0.1318659782409668,1.43891519775, 0.263362182617, 9.52652840576, -0.87786259542, -1.11450381679, -0.312977099237
0.13359713554382324,1.43891519775, 0.263362182617, 9.52652840576, -0.87786259542, -1.11450381679, -0.312977099237
0.13496804237365723,1.43891519775, 0.263362182617, 9.52652840576, -0.87786259542, -1.11450381679, -0.312977099237
0.1360931396484375,1.43891519775, 0.263362182617, 9.52652840576, -0.87786259542, -1.11450381679, -0.312977099237
0.1372671127319336,1.43891519775, 0.263362182617, 9.52652840576, -0.87786259542, -1.11450381679, -0.312977099237
0.1383969783782959,1.43891519775, 0.263362182617, 9.52652840576, -0.87786259542, -1.11450381679, -0.312977099237
0.1393880844116211,1.43891519775, 0.263362182617, 9.52652840576, -0.87786259542, -1.11450381679, -0.312977099237
0.1403791904449463,1.43891519775, 0.263362182617, 9.52652840576, -0.87786259542, -1.11450381679, -0.312977099237
0.14142799377441406,1.43891519775, 0.263362182617, 9.52652840576, -0.87786259542, -1.11450381679, -0.312977099237
0.14226508140563965,1.43891519775, 0.263362182617, 9.52652840576, -0.87786259542, -1.11450381679, -0.312977099237
0.14301204681396484,1.43891519775, 0.263362182617, 9.52652840576, -0.87786259542, -1.11450381679, -0.312977099237
0.1437830924987793,1.43891519775, 0.263362182617, 9.52652840576, -0.87786259542, -1.11450381679, -0.312977099237
0.14462900161743164,1.43891519775, 0.263362182617, 9.52652840576, -0.87786259542, -1.11450381679, -0.312977099237
0.1454460620880127,1.43891519775, 0.263362182617, 9.52652840576, -0.87786259542, -1.11450381679, -0.312977099237
0.14617705345153809,1.43891519775, 0.263362182617, 9.52652840576, -0.87786259542, -1.11450381679, -0.312977099237
0.14693498611450195,1.43891519775, 0.263362182617, 9.52652840576, -0.87786259542, -1.11450381679, -0.312977099237
0.1476750373840332,1.43891519775, 0.263362182617, 9.52652840576, -0.87786259542, -1.11450381679, -0.312977099237
0.1485309600830078,1.43891519775, 0.263362182617, 9.52652840576, -0.87786259542, -1.11450381679, -0.312977099237
0.16157007217407227,1.43891519775, 0.263362182617, 9.52652840576, -0.87786259542, -1.11450381679, -0.312977099237
0.16378307342529297,1.43891519775, 0.263362182617, 9.52652840576, -0.87786259542, -1.11450381679, -0.312977099237
0.1661989688873291,1.43891519775, 0.263362182617, 9.52652840576, -0.87786259542, -1.11450381679, -0.312977099237
0.1678299903869629,1.43891519775, 0.263362182617, 9.52652840576, -0.87786259542, -1.11450381679, -0.312977099237
0.16909408569335938,1.43891519775, 0.263362182617, 9.52652840576, -0.87786259542, -1.11450381679, -0.312977099237
0.17037415504455566,1.43891519775, 0.263362182617, 9.52652840576, -0.87786259542, -1.11450381679, -0.312977099237
0.17170310020446777,1.43891519775, 0.263362182617, 9.52652840576, -0.87786259542, -1.11450381679, -0.312977099237
0.17323708534240723,1.43891519775, 0.263362182617, 9.52652840576, -0.87786259542, -1.11450381679, -0.312977099237
0.17461204528808594,1.43891519775, 0.263362182617, 9.52652840576, -0.87786259542, -1.11450381679, -0.312977099237
0.17607808113098145,1.43891519775, 0.263362182617, 9.52652840576, -0.87786259542, -1.11450381679, -0.312977099237
0.17740416526794434,1.43891519775, 0.263362182617, 9.52652840576, -0.87786259542, -1.11450381679, -0.312977099237
0.17856907844543457,1.43891519775, 0.263362182617, 9.52652840576, -0.87786259542, -1.11450381679, -0.312977099237
0.17985010147094727,1.43891519775, 0.263362182617, 9.52652840576, -0.87786259542, -1.11450381679, -0.312977099237
0.18140101432800293,1.43891519775, 0.263362182617, 9.52652840576, -0.87786259542, -1.11450381679, -0.312977099237
0.18280911445617676,1.43891519775, 0.263362182617, 9.52652840576, -0.87786259542, -1.11450381679, -0.312977099237
0.1844310760498047,1.43891519775, 0.263362182617, 9.52652840576, -0.87786259542, -1.11450381679, -0.312977099237
0.1882181167602539,1.43891519775, 0.263362182617, 9.52652840576, -0.87786259542, -1.11450381679, -0.312977099237
0.190324068069458,1.43891519775, 0.263362182617, 9.52652840576, -0.87786259542, -1.11450381679, -0.312977099237
0.19286513328552246,1.43891519775, 0.263362182617, 9.52652840576, -0.87786259542, -1.11450381679, -0.312977099237
0.19570112228393555,1.43891519775, 0.263362182617, 9.52652840576, -0.87786259542, -1.11450381679, -0.312977099237
0.198868989944458,1.43891519775, 0.263362182617, 9.52652840576, -0.87786259542, -1.11450381679, -0.312977099237
0.20032501220703125,1.43891519775, 0.263362182617, 9.52652840576, -0.87786259542, -1.11450381679, -0.312977099237
0.20275497436523438,1.43891519775, 0.263362182617, 9.52652840576, -0.87786259542, -1.11450381679, -0.312977099237
0.20452499389648438,1.43891519775, 0.263362182617, 9.52652840576, -0.87786259542, -1.11450381679, -0.312977099237
0.20569610595703125,1.43891519775, 0.263362182617, 9.52652840576, -0.87786259542, -1.11450381679, -0.312977099237
0.20691919326782227,1.43891519775, 0.263362182617, 9.52652840576, -0.87786259542, -1.11450381679, -0.312977099237
0.20827198028564453,1.43891519775, 0.263362182617, 9.52652840576, -0.87786259542, -1.11450381679, -0.312977099237
0.2096409797668457,1.43891519775, 0.263362182617, 9.52652840576, -0.87786259542, -1.11450381679, -0.312977099237
0.21136999130249023,1.43891519775, 0.263362182617, 9.52652840576, -0.87786259542, -1.11450381679, -0.312977099237
0.2126619815826416,1.43891519775, 0.263362182617, 9.52652840576, -0.87786259542, -1.11450381679, -0.312977099237
0.21402716636657715,1.43891519775, 0.263362182617, 9.52652840576, -0.87786259542, -1.11450381679, -0.312977099237
0.2157421112060547,1.43891519775, 0.263362182617, 9.52652840576, -0.87786259542, -1.11450381679, -0.312977099237
0.21755504608154297,1.43891519775, 0.263362182617, 9.52652840576, -0.87786259542, -1.11450381679, -0.312977099237
0.22261905670166016,1.44609780273, 0.30166940918, 9.56244143066, -0.961832061069, -1.19847328244, -0.541984732824
0.22553706169128418,1.44609780273, 0.30166940918, 9.56244143066, -0.961832061069, -1.19847328244, -0.541984732824
0.22855901718139648,1.44609780273, 0.30166940918, 9.56244143066, -0.961832061069, -1.19847328244, -0.541984732824
0.23102498054504395,1.44609780273, 0.30166940918, 9.56244143066, -0.961832061069, -1.19847328244, -0.541984732824
0.2324361801147461,1.44609780273, 0.30166940918, 9.56244143066, -0.961832061069, -1.19847328244, -0.541984732824
0.23359203338623047,1.44609780273, 0.30166940918, 9.56244143066, -0.961832061069, -1.19847328244, -0.541984732824
0.23490309715270996,1.44609780273, 0.30166940918, 9.56244143066, -0.961832061069, -1.19847328244, -0.541984732824
0.23604798316955566,1.44609780273, 0.30166940918, 9.56244143066, -0.961832061069, -1.19847328244, -0.541984732824
0.23741698265075684,1.44609780273, 0.30166940918, 9.56244143066, -0.961832061069, -1.19847328244, -0.541984732824
0.2386021614074707,1.44609780273, 0.30166940918, 9.56244143066, -0.961832061069, -1.19847328244, -0.541984732824
0.239760160446167,1.44609780273, 0.30166940918, 9.56244143066, -0.961832061069, -1.19847328244, -0.541984732824
0.24126195907592773,1.44609780273, 0.30166940918, 9.56244143066, -0.961832061069, -1.19847328244, -0.541984732824
0.24252605438232422,1.44609780273, 0.30166940918, 9.56244143066, -0.961832061069, -1.19847328244, -0.541984732824
0.24372196197509766,1.44609780273, 0.30166940918, 9.56244143066, -0.961832061069, -1.19847328244, -0.541984732824
0.24509501457214355,1.44609780273, 0.30166940918, 9.56244143066, -0.961832061069, -1.19847328244, -0.541984732824
0.24667716026306152,1.44609780273, 0.30166940918, 9.56244143066, -0.961832061069, -1.19847328244, -0.541984732824
0.24953603744506836,1.44609780273, 0.30166940918, 9.56244143066, -0.961832061069, -1.19847328244, -0.541984732824
0.25118517875671387,1.44609780273, 0.30166940918, 9.56244143066, -0.961832061069, -1.19847328244, -0.541984732824
0.25435614585876465,1.44609780273, 0.30166940918, 9.56244143066, -0.961832061069, -1.19847328244, -0.541984732824
0.256335973739624,1.44609780273, 0.30166940918, 9.56244143066, -0.961832061069, -1.19847328244, -0.541984732824
0.25819897651672363,1.44609780273, 0.30166940918, 9.56244143066, -0.961832061069, -1.19847328244, -0.541984732824
0.259937047958374,1.44609780273, 0.30166940918, 9.56244143066, -0.961832061069, -1.19847328244, -0.541984732824
0.26107311248779297,1.44609780273, 0.30166940918, 9.56244143066, -0.961832061069, -1.19847328244, -0.541984732824
0.2620971202850342,1.44609780273, 0.30166940918, 9.56244143066, -0.961832061069, -1.19847328244, -0.541984732824
0.2632420063018799,1.44609780273, 0.30166940918, 9.56244143066, -0.961832061069, -1.19847328244, -0.541984732824
0.26416707038879395,1.44609780273, 0.30166940918, 9.56244143066, -0.961832061069, -1.19847328244, -0.541984732824
0.2649810314178467,1.44609780273, 0.30166940918, 9.56244143066, -0.961832061069, -1.19847328244, -0.541984732824
0.26636409759521484,1.44609780273, 0.30166940918, 9.56244143066, -0.961832061069, -1.19847328244, -0.541984732824
0.2678511142730713,1.44609780273, 0.30166940918, 9.56244143066, -0.961832061069, -1.19847328244, -0.541984732824
0.26881909370422363,1.44609780273, 0.30166940918, 9.56244143066, -0.961832061069, -1.19847328244, -0.541984732824
0.2695891857147217,1.44609780273, 0.30166940918, 9.56244143066, -0.961832061069, -1.19847328244, -0.541984732824
0.2703831195831299,1.44609780273, 0.30166940918, 9.56244143066, -0.961832061069, -1.19847328244, -0.541984732824
0.2714080810546875,1.44609780273, 0.30166940918, 9.56244143066, -0.961832061069, -1.19847328244, -0.541984732824
0.2722289562225342,1.44609780273, 0.30166940918, 9.56244143066, -0.961832061069, -1.19847328244, -0.541984732824
0.27301907539367676,1.44609780273, 0.30166940918, 9.56244143066, -0.961832061069, -1.19847328244, -0.541984732824
0.2738161087036133,1.44609780273, 0.30166940918, 9.56244143066, -0.961832061069, -1.19847328244, -0.541984732824
0.2747461795806885,1.44609780273, 0.30166940918, 9.56244143066, -0.961832061069, -1.19847328244, -0.541984732824
0.2760000228881836,1.44609780273, 0.30166940918, 9.56244143066, -0.961832061069, -1.19847328244, -0.541984732824
0.27748703956604004,1.44609780273, 0.30166940918, 9.56244143066, -0.961832061069, -1.19847328244, -0.541984732824
0.28131818771362305,1.44609780273, 0.30166940918, 9.56244143066, -0.961832061069, -1.19847328244, -0.541984732824
0.28309106826782227,1.44609780273, 0.30166940918, 9.56244143066, -0.961832061069, -1.19847328244, -0.541984732824
0.2850470542907715,1.44609780273, 0.30166940918, 9.56244143066, -0.961832061069, -1.19847328244, -0.541984732824
0.287384033203125,1.44609780273, 0.30166940918, 9.56244143066, -0.961832061069, -1.19847328244, -0.541984732824
0.28879213333129883,1.44609780273, 0.30166940918, 9.56244143066, -0.961832061069, -1.19847328244, -0.541984732824
0.29021406173706055,1.44609780273, 0.30166940918, 9.56244143066, -0.961832061069, -1.19847328244, -0.541984732824
0.2918281555175781,1.44609780273, 0.30166940918, 9.56244143066, -0.961832061069, -1.19847328244, -0.541984732824
0.2933800220489502,1.44609780273, 0.30166940918, 9.56244143066, -0.961832061069, -1.19847328244, -0.541984732824
0.29465603828430176,1.44609780273, 0.30166940918, 9.56244143066, -0.961832061069, -1.19847328244, -0.541984732824
0.2957150936126709,1.44609780273, 0.30166940918, 9.56244143066, -0.961832061069, -1.19847328244, -0.541984732824
0.29671597480773926,1.44609780273, 0.30166940918, 9.56244143066, -0.961832061069, -1.19847328244, -0.541984732824
0.29780006408691406,1.44609780273, 0.30166940918, 9.56244143066, -0.961832061069, -1.19847328244, -0.541984732824
0.2989540100097656,1.44609780273, 0.30166940918, 9.56244143066, -0.961832061069, -1.19847328244, -0.541984732824
0.3007521629333496,1.44609780273, 0.30166940918, 9.56244143066, -0.961832061069, -1.19847328244, -0.541984732824
0.3023960590362549,1.44609780273, 0.30166940918, 9.56244143066, -0.961832061069, -1.19847328244, -0.541984732824
0.30385899543762207,1.44609780273, 0.30166940918, 9.56244143066, -0.961832061069, -1.19847328244, -0.541984732824
0.3050529956817627,1.44609780273, 0.30166940918, 9.56244143066, -0.961832061069, -1.19847328244, -0.541984732824
0.3063831329345703,1.44609780273, 0.30166940918, 9.56244143066, -0.961832061069, -1.19847328244, -0.541984732824
0.3086421489715576,1.44609780273, 0.30166940918, 9.56244143066, -0.961832061069, -1.19847328244, -0.541984732824
0.3103480339050293,1.44609780273, 0.30166940918, 9.56244143066, -0.961832061069, -1.19847328244, -0.541984732824
0.3124830722808838,1.44609780273, 0.30166940918, 9.56244143066, -0.961832061069, -1.19847328244, -0.541984732824
0.3140220642089844,1.44609780273, 0.30166940918, 9.56244143066, -0.961832061069, -1.19847328244, -0.541984732824
0.3154301643371582,1.44609780273, 0.30166940918, 9.56244143066, -0.961832061069, -1.19847328244, -0.541984732824
0.31769299507141113,1.41497318115, 0.294486804199, 9.59356605225, -0.93893129771, -1.09923664122, -0.458015267176
0.3214070796966553,1.41497318115, 0.294486804199, 9.59356605225, -0.93893129771, -1.09923664122, -0.458015267176
0.323944091796875,1.41497318115, 0.294486804199, 9.59356605225, -0.93893129771, -1.09923664122, -0.458015267176
0.3269960880279541,1.41497318115, 0.294486804199, 9.59356605225, -0.93893129771, -1.09923664122, -0.458015267176
0.3289451599121094,1.41497318115, 0.294486804199, 9.59356605225, -0.93893129771, -1.09923664122, -0.458015267176
0.33039212226867676,1.41497318115, 0.294486804199, 9.59356605225, -0.93893129771, -1.09923664122, -0.458015267176
0.3318440914154053,1.41497318115, 0.294486804199, 9.59356605225, -0.93893129771, -1.09923664122, -0.458015267176
0.3332841396331787,1.41497318115, 0.294486804199, 9.59356605225, -0.93893129771, -1.09923664122, -0.458015267176
0.33463501930236816,1.41497318115, 0.294486804199, 9.59356605225, -0.93893129771, -1.09923664122, -0.458015267176
0.3359839916229248,1.41497318115, 0.294486804199, 9.59356605225, -0.93893129771, -1.09923664122, -0.458015267176
0.33756303787231445,1.41497318115, 0.294486804199, 9.59356605225, -0.93893129771, -1.09923664122, -0.458015267176
0.3389880657196045,1.41497318115, 0.294486804199, 9.59356605225, -0.93893129771, -1.09923664122, -0.458015267176
0.34075403213500977,1.41497318115, 0.294486804199, 9.59356605225, -0.93893129771, -1.09923664122, -0.458015267176
0.34343409538269043,1.41497318115, 0.294486804199, 9.59356605225, -0.93893129771, -1.09923664122, -0.458015267176
0.3470489978790283,1.41497318115, 0.294486804199, 9.59356605225, -0.93893129771, -1.09923664122, -0.458015267176
0.349682092666626,1.41497318115, 0.294486804199, 9.59356605225, -0.93893129771, -1.09923664122, -0.458015267176
0.35221004486083984,1.41497318115, 0.294486804199, 9.59356605225, -0.93893129771, -1.09923664122, -0.458015267176
0.35372400283813477,1.41497318115, 0.294486804199, 9.59356605225, -0.93893129771, -1.09923664122, -0.458015267176
0.3550581932067871,1.41497318115, 0.294486804199, 9.59356605225, -0.93893129771, -1.09923664122, -0.458015267176
0.3563230037689209,1.41497318115, 0.294486804199, 9.59356605225, -0.93893129771, -1.09923664122, -0.458015267176
0.35837697982788086,1.41497318115, 0.294486804199, 9.59356605225, -0.93893129771, -1.09923664122, -0.458015267176
0.3598921298980713,1.41497318115, 0.294486804199, 9.59356605225, -0.93893129771, -1.09923664122, -0.458015267176
0.3614051342010498,1.41497318115, 0.294486804199, 9.59356605225, -0.93893129771, -1.09923664122, -0.458015267176
0.36301302909851074,1.41497318115, 0.294486804199, 9.59356605225, -0.93893129771, -1.09923664122, -0.458015267176
0.36423206329345703,1.41497318115, 0.294486804199, 9.59356605225, -0.93893129771, -1.09923664122, -0.458015267176
0.36545896530151367,1.41497318115, 0.294486804199, 9.59356605225, -0.93893129771, -1.09923664122, -0.458015267176
0.36716198921203613,1.41497318115, 0.294486804199, 9.59356605225, -0.93893129771, -1.09923664122, -0.458015267176
0.3691079616546631,1.41497318115, 0.294486804199, 9.59356605225, -0.93893129771, -1.09923664122, -0.458015267176
0.37288498878479004,1.41497318115, 0.294486804199, 9.59356605225, -0.93893129771, -1.09923664122, -0.458015267176
0.3753530979156494,1.41497318115, 0.294486804199, 9.59356605225, -0.93893129771, -1.09923664122, -0.458015267176
0.37804198265075684,1.41497318115, 0.294486804199, 9.59356605225, -0.93893129771, -1.09923664122, -0.458015267176
0.3795931339263916,1.41497318115, 0.294486804199, 9.59356605225, -0.93893129771, -1.09923664122, -0.458015267176
0.381256103515625,1.41497318115, 0.294486804199, 9.59356605225, -0.93893129771, -1.09923664122, -0.458015267176
0.3826260566711426,1.41497318115, 0.294486804199, 9.59356605225, -0.93893129771, -1.09923664122, -0.458015267176
0.3839900493621826,1.41497318115, 0.294486804199, 9.59356605225, -0.93893129771, -1.09923664122, -0.458015267176
0.38526201248168945,1.41497318115, 0.294486804199, 9.59356605225, -0.93893129771, -1.09923664122, -0.458015267176
0.38660407066345215,1.41497318115, 0.294486804199, 9.59356605225, -0.93893129771, -1.09923664122, -0.458015267176
0.3882601261138916,1.41497318115, 0.294486804199, 9.59356605225, -0.93893129771, -1.09923664122, -0.458015267176
0.38953614234924316,1.41497318115, 0.294486804199, 9.59356605225, -0.93893129771, -1.09923664122, -0.458015267176
0.39157605171203613,1.41497318115, 0.294486804199, 9.59356605225, -0.93893129771, -1.09923664122, -0.458015267176
0.3930041790008545,1.41497318115, 0.294486804199, 9.59356605225, -0.93893129771, -1.09923664122, -0.458015267176
0.39400410652160645,1.41497318115, 0.294486804199, 9.59356605225, -0.93893129771, -1.09923664122, -0.458015267176
0.3948521614074707,1.41497318115, 0.294486804199, 9.59356605225, -0.93893129771, -1.09923664122, -0.458015267176
0.3957960605621338,1.41497318115, 0.294486804199, 9.59356605225, -0.93893129771, -1.09923664122, -0.458015267176
0.3967759609222412,1.41497318115, 0.294486804199, 9.59356605225, -0.93893129771, -1.09923664122, -0.458015267176
0.39801812171936035,1.41497318115, 0.294486804199, 9.59356605225, -0.93893129771, -1.09923664122, -0.458015267176
0.4013049602508545,1.41497318115, 0.294486804199, 9.59356605225, -0.93893129771, -1.09923664122, -0.458015267176
0.404742956161499,1.41497318115, 0.294486804199, 9.59356605225, -0.93893129771, -1.09923664122, -0.458015267176
0.4065980911254883,1.41497318115, 0.294486804199, 9.59356605225, -0.93893129771, -1.09923664122, -0.458015267176
0.4083280563354492,1.41497318115, 0.294486804199, 9.59356605225, -0.93893129771, -1.09923664122, -0.458015267176
0.4099280834197998,1.41497318115, 0.294486804199, 9.59356605225, -0.93893129771, -1.09923664122, -0.458015267176
0.41120100021362305,1.41497318115, 0.294486804199, 9.59356605225, -0.93893129771, -1.09923664122, -0.458015267176
0.4122440814971924,1.41497318115, 0.294486804199, 9.59356605225, -0.93893129771, -1.09923664122, -0.458015267176
0.4131901264190674,1.41497318115, 0.294486804199, 9.59356605225, -0.93893129771, -1.09923664122, -0.458015267176
0.41411399841308594,1.41497318115, 0.294486804199, 9.59356605225, -0.93893129771, -1.09923664122, -0.458015267176
0.41541218757629395,1.41497318115, 0.294486804199, 9.59356605225, -0.93893129771, -1.09923664122, -0.458015267176
0.417816162109375,1.41257897949, 0.246602770996, 9.48103857422, -0.900763358779, -1.02290076336, -0.396946564885
0.4194021224975586,1.41257897949, 0.246602770996, 9.48103857422, -0.900763358779, -1.02290076336, -0.396946564885
0.4206840991973877,1.41257897949, 0.246602770996, 9.48103857422, -0.900763358779, -1.02290076336, -0.396946564885
0.4221811294555664,1.41257897949, 0.246602770996, 9.48103857422, -0.900763358779, -1.02290076336, -0.396946564885
0.4236021041870117,1.41257897949, 0.246602770996, 9.48103857422, -0.900763358779, -1.02290076336, -0.396946564885
0.4247431755065918,1.41257897949, 0.246602770996, 9.48103857422, -0.900763358779, -1.02290076336, -0.396946564885
0.42577099800109863,1.41257897949, 0.246602770996, 9.48103857422, -0.900763358779, -1.02290076336, -0.396946564885
0.42677807807922363,1.41257897949, 0.246602770996, 9.48103857422, -0.900763358779, -1.02290076336, -0.396946564885
0.4277801513671875,1.41257897949, 0.246602770996, 9.48103857422, -0.900763358779, -1.02290076336, -0.396946564885
0.4286010265350342,1.41257897949, 0.246602770996, 9.48103857422, -0.900763358779, -1.02290076336, -0.396946564885
0.4294881820678711,1.41257897949, 0.246602770996, 9.48103857422, -0.900763358779, -1.02290076336, -0.396946564885
0.4316389560699463,1.41257897949, 0.246602770996, 9.48103857422, -0.900763358779, -1.02290076336, -0.396946564885
0.4331471920013428,1.41257897949, 0.246602770996, 9.48103857422, -0.900763358779, -1.02290076336, -0.396946564885
0.434628963470459,1.41257897949, 0.246602770996, 9.48103857422, -0.900763358779, -1.02290076336, -0.396946564885
0.43578004837036133,1.41257897949, 0.246602770996, 9.48103857422, -0.900763358779, -1.02290076336, -0.396946564885
0.4367649555206299,1.41257897949, 0.246602770996, 9.48103857422, -0.900763358779, -1.02290076336, -0.396946564885
0.4375879764556885,1.41257897949, 0.246602770996, 9.48103857422, -0.900763358779, -1.02290076336, -0.396946564885
0.4384770393371582,1.41257897949, 0.246602770996, 9.48103857422, -0.900763358779, -1.02290076336, -0.396946564885
0.43993616104125977,1.41257897949, 0.246602770996, 9.48103857422, -0.900763358779, -1.02290076336, -0.396946564885
0.44182610511779785,1.41257897949, 0.246602770996, 9.48103857422, -0.900763358779, -1.02290076336, -0.396946564885
0.4436531066894531,1.41257897949, 0.246602770996, 9.48103857422, -0.900763358779, -1.02290076336, -0.396946564885
0.44535207748413086,1.41257897949, 0.246602770996, 9.48103857422, -0.900763358779, -1.02290076336, -0.396946564885
0.44711804389953613,1.41257897949, 0.246602770996, 9.48103857422, -0.900763358779, -1.02290076336, -0.396946564885
0.4488050937652588,1.41257897949, 0.246602770996, 9.48103857422, -0.900763358779, -1.02290076336, -0.396946564885
0.4523770809173584,1.41257897949, 0.246602770996, 9.48103857422, -0.900763358779, -1.02290076336, -0.396946564885
0.45476698875427246,1.41257897949, 0.246602770996, 9.48103857422, -0.900763358779, -1.02290076336, -0.396946564885
0.45653200149536133,1.41257897949, 0.246602770996, 9.48103857422, -0.900763358779, -1.02290076336, -0.396946564885
0.4588019847869873,1.41257897949, 0.246602770996, 9.48103857422, -0.900763358779, -1.02290076336, -0.396946564885
0.46136999130249023,1.41257897949, 0.246602770996, 9.48103857422, -0.900763358779, -1.02290076336, -0.396946564885
0.46279311180114746,1.41257897949, 0.246602770996, 9.48103857422, -0.900763358779, -1.02290076336, -0.396946564885
0.46442413330078125,1.41257897949, 0.246602770996, 9.48103857422, -0.900763358779, -1.02290076336, -0.396946564885
0.46579813957214355,1.41257897949, 0.246602770996, 9.48103857422, -0.900763358779, -1.02290076336, -0.396946564885
0.4672060012817383,1.41257897949, 0.246602770996, 9.48103857422, -0.900763358779, -1.02290076336, -0.396946564885
0.46892714500427246,1.41257897949, 0.246602770996, 9.48103857422, -0.900763358779, -1.02290076336, -0.396946564885
0.473438024520874,1.41257897949, 0.246602770996, 9.48103857422, -0.900763358779, -1.02290076336, -0.396946564885
0.4763221740722656,1.41257897949, 0.246602770996, 9.48103857422, -0.900763358779, -1.02290076336, -0.396946564885
0.47884607315063477,1.41257897949, 0.246602770996, 9.48103857422, -0.900763358779, -1.02290076336, -0.396946564885
0.48119115829467773,1.41257897949, 0.246602770996, 9.48103857422, -0.900763358779, -1.02290076336, -0.396946564885
0.48307108879089355,1.41257897949, 0.246602770996, 9.48103857422, -0.900763358779, -1.02290076336, -0.396946564885
0.48493409156799316,1.41257897949, 0.246602770996, 9.48103857422, -0.900763358779, -1.02290076336, -0.396946564885
0.4864630699157715,1.41257897949, 0.246602770996, 9.48103857422, -0.900763358779, -1.02290076336, -0.396946564885
0.4880390167236328,1.41257897949, 0.246602770996, 9.48103857422, -0.900763358779, -1.02290076336, -0.396946564885
0.4892599582672119,1.41257897949, 0.246602770996, 9.48103857422, -0.900763358779, -1.02290076336, -0.396946564885
0.49057817459106445,1.41257897949, 0.246602770996, 9.48103857422, -0.900763358779, -1.02290076336, -0.396946564885
0.4921879768371582,1.41257897949, 0.246602770996, 9.48103857422, -0.900763358779, -1.02290076336, -0.396946564885
0.4937100410461426,1.41257897949, 0.246602770996, 9.48103857422, -0.900763358779, -1.02290076336, -0.396946564885
0.4970409870147705,1.41257897949, 0.246602770996, 9.48103857422, -0.900763358779, -1.02290076336, -0.396946564885
0.49836015701293945,1.41257897949, 0.246602770996, 9.48103857422, -0.900763358779, -1.02290076336, -0.396946564885
0.4995450973510742,1.41257897949, 0.246602770996, 9.48103857422, -0.900763358779, -1.02290076336, -0.396946564885
0.5013401508331299,1.41257897949, 0.246602770996, 9.48103857422, -0.900763358779, -1.02290076336, -0.396946564885
0.5030250549316406,1.41257897949, 0.246602770996, 9.48103857422, -0.900763358779, -1.02290076336, -0.396946564885
0.5048611164093018,1.41257897949, 0.246602770996, 9.48103857422, -0.900763358779, -1.02290076336, -0.396946564885
0.509660005569458,1.41257897949, 0.246602770996, 9.48103857422, -0.900763358779, -1.02290076336, -0.396946564885
0.5116701126098633,1.41257897949, 0.246602770996, 9.48103857422, -0.900763358779, -1.02290076336, -0.396946564885
0.5136921405792236,1.41257897949, 0.246602770996, 9.48103857422, -0.900763358779, -1.02290076336, -0.396946564885
0.5153059959411621,1.41257897949, 0.246602770996, 9.48103857422, -0.900763358779, -1.02290076336, -0.396946564885
0.5164811611175537,1.41257897949, 0.246602770996, 9.48103857422, -0.900763358779, -1.02290076336, -0.396946564885
0.5188331604003906,1.43412679443, 0.232237561035, 9.65342109375, -1.00763358779, -1.06106870229, -0.450381679389
0.5198609828948975,1.43412679443, 0.232237561035, 9.65342109375, -1.00763358779, -1.06106870229, -0.450381679389
0.5210220813751221,1.43412679443, 0.232237561035, 9.65342109375, -1.00763358779, -1.06106870229, -0.450381679389
0.5221390724182129,1.43412679443, 0.232237561035, 9.65342109375, -1.00763358779, -1.06106870229, -0.450381679389
0.5244920253753662,1.43412679443, 0.232237561035, 9.65342109375, -1.00763358779, -1.06106870229, -0.450381679389
0.5258171558380127,1.43412679443, 0.232237561035, 9.65342109375, -1.00763358779, -1.06106870229, -0.450381679389
0.5274250507354736,1.43412679443, 0.232237561035, 9.65342109375, -1.00763358779, -1.06106870229, -0.450381679389
0.5284340381622314,1.43412679443, 0.232237561035, 9.65342109375, -1.00763358779, -1.06106870229, -0.450381679389
0.5294990539550781,1.43412679443, 0.232237561035, 9.65342109375, -1.00763358779, -1.06106870229, -0.450381679389
0.5307941436767578,1.43412679443, 0.232237561035, 9.65342109375, -1.00763358779, -1.06106870229, -0.450381679389
0.5324440002441406,1.43412679443, 0.232237561035, 9.65342109375, -1.00763358779, -1.06106870229, -0.450381679389
0.5339560508728027,1.43412679443, 0.232237561035, 9.65342109375, -1.00763358779, -1.06106870229, -0.450381679389
0.5379650592803955,1.43412679443, 0.232237561035, 9.65342109375, -1.00763358779, -1.06106870229, -0.450381679389
0.5399131774902344,1.43412679443, 0.232237561035, 9.65342109375, -1.00763358779, -1.06106870229, -0.450381679389
0.5425820350646973,1.43412679443, 0.232237561035, 9.65342109375, -1.00763358779, -1.06106870229, -0.450381679389
0.5443730354309082,1.43412679443, 0.232237561035, 9.65342109375, -1.00763358779, -1.06106870229, -0.450381679389
0.5459330081939697,1.43412679443, 0.232237561035, 9.65342109375, -1.00763358779, -1.06106870229, -0.450381679389
0.5473060607910156,1.43412679443, 0.232237561035, 9.65342109375, -1.00763358779, -1.06106870229, -0.450381679389
0.548638105392456,1.43412679443, 0.232237561035, 9.65342109375, -1.00763358779, -1.06106870229, -0.450381679389
0.5502409934997559,1.43412679443, 0.232237561035, 9.65342109375, -1.00763358779, -1.06106870229, -0.450381679389
0.5517799854278564,1.43412679443, 0.232237561035, 9.65342109375, -1.00763358779, -1.06106870229, -0.450381679389
0.5533421039581299,1.43412679443, 0.232237561035, 9.65342109375, -1.00763358779, -1.06106870229, -0.450381679389
0.5549499988555908,1.43412679443, 0.232237561035, 9.65342109375, -1.00763358779, -1.06106870229, -0.450381679389
0.5564250946044922,1.43412679443, 0.232237561035, 9.65342109375, -1.00763358779, -1.06106870229, -0.450381679389
0.5577220916748047,1.43412679443, 0.232237561035, 9.65342109375, -1.00763358779, -1.06106870229, -0.450381679389
0.5592761039733887,1.43412679443, 0.232237561035, 9.65342109375, -1.00763358779, -1.06106870229, -0.450381679389
0.5610730648040771,1.43412679443, 0.232237561035, 9.65342109375, -1.00763358779, -1.06106870229, -0.450381679389
0.5625820159912109,1.43412679443, 0.232237561035, 9.65342109375, -1.00763358779, -1.06106870229, -0.450381679389
0.5642681121826172,1.43412679443, 0.232237561035, 9.65342109375, -1.00763358779, -1.06106870229, -0.450381679389
0.5674819946289062,1.43412679443, 0.232237561035, 9.65342109375, -1.00763358779, -1.06106870229, -0.450381679389
0.5701510906219482,1.43412679443, 0.232237561035, 9.65342109375, -1.00763358779, -1.06106870229, -0.450381679389
0.5725181102752686,1.43412679443, 0.232237561035, 9.65342109375, -1.00763358779, -1.06106870229, -0.450381679389
0.5741209983825684,1.43412679443, 0.232237561035, 9.65342109375, -1.00763358779, -1.06106870229, -0.450381679389
0.5754721164703369,1.43412679443, 0.232237561035, 9.65342109375, -1.00763358779, -1.06106870229, -0.450381679389
0.576850175857544,1.43412679443, 0.232237561035, 9.65342109375, -1.00763358779, -1.06106870229, -0.450381679389
0.5782561302185059,1.43412679443, 0.232237561035, 9.65342109375, -1.00763358779, -1.06106870229, -0.450381679389
0.5796341896057129,1.43412679443, 0.232237561035, 9.65342109375, -1.00763358779, -1.06106870229, -0.450381679389
0.5812740325927734,1.43412679443, 0.232237561035, 9.65342109375, -1.00763358779, -1.06106870229, -0.450381679389
0.5850741863250732,1.43412679443, 0.232237561035, 9.65342109375, -1.00763358779, -1.06106870229, -0.450381679389
0.5865511894226074,1.43412679443, 0.232237561035, 9.65342109375, -1.00763358779, -1.06106870229, -0.450381679389
0.5880591869354248,1.43412679443, 0.232237561035, 9.65342109375, -1.00763358779, -1.06106870229, -0.450381679389
0.5893759727478027,1.43412679443, 0.232237561035, 9.65342109375, -1.00763358779, -1.06106870229, -0.450381679389
0.5911321640014648,1.43412679443, 0.232237561035, 9.65342109375, -1.00763358779, -1.06106870229, -0.450381679389
0.5968291759490967,1.43412679443, 0.232237561035, 9.65342109375, -1.00763358779, -1.06106870229, -0.450381679389
0.5995030403137207,1.43412679443, 0.232237561035, 9.65342109375, -1.00763358779, -1.06106870229, -0.450381679389
0.6023859977722168,1.43412679443, 0.232237561035, 9.65342109375, -1.00763358779, -1.06106870229, -0.450381679389
0.6045529842376709,1.43412679443, 0.232237561035, 9.65342109375, -1.00763358779, -1.06106870229, -0.450381679389
0.6059260368347168,1.43412679443, 0.232237561035, 9.65342109375, -1.00763358779, -1.06106870229, -0.450381679389
0.6072821617126465,1.43412679443, 0.232237561035, 9.65342109375, -1.00763358779, -1.06106870229, -0.450381679389
0.6086370944976807,1.43412679443, 0.232237561035, 9.65342109375, -1.00763358779, -1.06106870229, -0.450381679389
0.6100211143493652,1.43412679443, 0.232237561035, 9.65342109375, -1.00763358779, -1.06106870229, -0.450381679389
0.6115481853485107,1.43412679443, 0.232237561035, 9.65342109375, -1.00763358779, -1.06106870229, -0.450381679389
0.6132841110229492,1.43412679443, 0.232237561035, 9.65342109375, -1.00763358779, -1.06106870229, -0.450381679389
0.6152420043945312,1.43412679443, 0.232237561035, 9.65342109375, -1.00763358779, -1.06106870229, -0.450381679389
0.6186001300811768,1.40300217285, 0.320823022461, 9.56483563232, -0.839694656489, -1.27480916031, -0.358778625954
0.6201050281524658,1.40300217285, 0.320823022461, 9.56483563232, -0.839694656489, -1.27480916031, -0.358778625954
0.6218280792236328,1.40300217285, 0.320823022461, 9.56483563232, -0.839694656489, -1.27480916031, -0.358778625954
0.6260931491851807,1.40300217285, 0.320823022461, 9.56483563232, -0.839694656489, -1.27480916031, -0.358778625954
0.6285800933837891,1.40300217285, 0.320823022461, 9.56483563232, -0.839694656489, -1.27480916031, -0.358778625954
0.6325950622558594,1.40300217285, 0.320823022461, 9.56483563232, -0.839694656489, -1.27480916031, -0.358778625954
0.6349191665649414,1.40300217285, 0.320823022461, 9.56483563232, -0.839694656489, -1.27480916031, -0.358778625954
0.6371240615844727,1.40300217285, 0.320823022461, 9.56483563232, -0.839694656489, -1.27480916031, -0.358778625954
0.6393301486968994,1.40300217285, 0.320823022461, 9.56483563232, -0.839694656489, -1.27480916031, -0.358778625954
0.6409339904785156,1.40300217285, 0.320823022461, 9.56483563232, -0.839694656489, -1.27480916031, -0.358778625954
0.6424481868743896,1.40300217285, 0.320823022461, 9.56483563232, -0.839694656489, -1.27480916031, -0.358778625954
0.6439690589904785,1.40300217285, 0.320823022461, 9.56483563232, -0.839694656489, -1.27480916031, -0.358778625954
0.6455709934234619,1.40300217285, 0.320823022461, 9.56483563232, -0.839694656489, -1.27480916031, -0.358778625954
0.6470241546630859,1.40300217285, 0.320823022461, 9.56483563232, -0.839694656489, -1.27480916031, -0.358778625954
0.6484131813049316,1.40300217285, 0.320823022461, 9.56483563232, -0.839694656489, -1.27480916031, -0.358778625954
0.650454044342041,1.40300217285, 0.320823022461, 9.56483563232, -0.839694656489, -1.27480916031, -0.358778625954
0.6520459651947021,1.40300217285, 0.320823022461, 9.56483563232, -0.839694656489, -1.27480916031, -0.358778625954
0.6532611846923828,1.40300217285, 0.320823022461, 9.56483563232, -0.839694656489, -1.27480916031, -0.358778625954
0.6545381546020508,1.40300217285, 0.320823022461, 9.56483563232, -0.839694656489, -1.27480916031, -0.358778625954
0.655980110168457,1.40300217285, 0.320823022461, 9.56483563232, -0.839694656489, -1.27480916031, -0.358778625954
0.6574451923370361,1.40300217285, 0.320823022461, 9.56483563232, -0.839694656489, -1.27480916031, -0.358778625954
0.661506175994873,1.40300217285, 0.320823022461, 9.56483563232, -0.839694656489, -1.27480916031, -0.358778625954
0.6639750003814697,1.40300217285, 0.320823022461, 9.56483563232, -0.839694656489, -1.27480916031, -0.358778625954
0.6661269664764404,1.40300217285, 0.320823022461, 9.56483563232, -0.839694656489, -1.27480916031, -0.358778625954
0.6678650379180908,1.40300217285, 0.320823022461, 9.56483563232, -0.839694656489, -1.27480916031, -0.358778625954
0.6688899993896484,1.40300217285, 0.320823022461, 9.56483563232, -0.839694656489, -1.27480916031, -0.358778625954
0.6699080467224121,1.40300217285, 0.320823022461, 9.56483563232, -0.839694656489, -1.27480916031, -0.358778625954
0.6710641384124756,1.40300217285, 0.320823022461, 9.56483563232, -0.839694656489, -1.27480916031, -0.358778625954
0.6722090244293213,1.40300217285, 0.320823022461, 9.56483563232, -0.839694656489, -1.27480916031, -0.358778625954
0.6739730834960938,1.40300217285, 0.320823022461, 9.56483563232, -0.839694656489, -1.27480916031, -0.358778625954
0.6755411624908447,1.40300217285, 0.320823022461, 9.56483563232, -0.839694656489, -1.27480916031, -0.358778625954
0.6769530773162842,1.40300217285, 0.320823022461, 9.56483563232, -0.839694656489, -1.27480916031, -0.358778625954
0.678368091583252,1.40300217285, 0.320823022461, 9.56483563232, -0.839694656489, -1.27480916031, -0.358778625954
0.6800341606140137,1.40300217285, 0.320823022461, 9.56483563232, -0.839694656489, -1.27480916031, -0.358778625954
0.681926965713501,1.40300217285, 0.320823022461, 9.56483563232, -0.839694656489, -1.27480916031, -0.358778625954
0.6835181713104248,1.40300217285, 0.320823022461, 9.56483563232, -0.839694656489, -1.27480916031, -0.358778625954
0.685189962387085,1.40300217285, 0.320823022461, 9.56483563232, -0.839694656489, -1.27480916031, -0.358778625954
0.687075138092041,1.40300217285, 0.320823022461, 9.56483563232, -0.839694656489, -1.27480916031, -0.358778625954
0.6907460689544678,1.40300217285, 0.320823022461, 9.56483563232, -0.839694656489, -1.27480916031, -0.358778625954
0.6933720111846924,1.40300217285, 0.320823022461, 9.56483563232, -0.839694656489, -1.27480916031, -0.358778625954
0.6959161758422852,1.40300217285, 0.320823022461, 9.56483563232, -0.839694656489, -1.27480916031, -0.358778625954
0.6980071067810059,1.40300217285, 0.320823022461, 9.56483563232, -0.839694656489, -1.27480916031, -0.358778625954
0.7018539905548096,1.40300217285, 0.320823022461, 9.56483563232, -0.839694656489, -1.27480916031, -0.358778625954
0.7034521102905273,1.40300217285, 0.320823022461, 9.56483563232, -0.839694656489, -1.27480916031, -0.358778625954
0.7049040794372559,1.40300217285, 0.320823022461, 9.56483563232, -0.839694656489, -1.27480916031, -0.358778625954
0.7064580917358398,1.40300217285, 0.320823022461, 9.56483563232, -0.839694656489, -1.27480916031, -0.358778625954
0.7079410552978516,1.40300217285, 0.320823022461, 9.56483563232, -0.839694656489, -1.27480916031, -0.358778625954
0.7096121311187744,1.40300217285, 0.320823022461, 9.56483563232, -0.839694656489, -1.27480916031, -0.358778625954
0.7113959789276123,1.40300217285, 0.320823022461, 9.56483563232, -0.839694656489, -1.27480916031, -0.358778625954
0.712846040725708,1.40300217285, 0.320823022461, 9.56483563232, -0.839694656489, -1.27480916031, -0.358778625954
0.7144801616668701,1.40300217285, 0.320823022461, 9.56483563232, -0.839694656489, -1.27480916031, -0.358778625954
0.7180180549621582,1.36230074463, 0.31124621582, 9.59117185059, -0.977099236641, -1.0534351145, -0.465648854962
0.7199180126190186,1.36230074463, 0.31124621582, 9.59117185059, -0.977099236641, -1.0534351145, -0.465648854962
0.7236921787261963,1.36230074463, 0.31124621582, 9.59117185059, -0.977099236641, -1.0534351145, -0.465648854962
0.7275991439819336,1.36230074463, 0.31124621582, 9.59117185059, -0.977099236641, -1.0534351145, -0.465648854962
0.7297971248626709,1.36230074463, 0.31124621582, 9.59117185059, -0.977099236641, -1.0534351145, -0.465648854962
0.732457160949707,1.36230074463, 0.31124621582, 9.59117185059, -0.977099236641, -1.0534351145, -0.465648854962
0.7345609664916992,1.36230074463, 0.31124621582, 9.59117185059, -0.977099236641, -1.0534351145, -0.465648854962
0.735910177230835,1.36230074463, 0.31124621582, 9.59117185059, -0.977099236641, -1.0534351145, -0.465648854962
0.7375631332397461,1.36230074463, 0.31124621582, 9.59117185059, -0.977099236641, -1.0534351145, -0.465648854962
0.7388801574707031,1.36230074463, 0.31124621582, 9.59117185059, -0.977099236641, -1.0534351145, -0.465648854962
0.7401471138000488,1.36230074463, 0.31124621582, 9.59117185059, -0.977099236641, -1.0534351145, -0.465648854962
0.7419869899749756,1.36230074463, 0.31124621582, 9.59117185059, -0.977099236641, -1.0534351145, -0.465648854962
0.7437310218811035,1.36230074463, 0.31124621582, 9.59117185059, -0.977099236641, -1.0534351145, -0.465648854962
0.7453210353851318,1.36230074463, 0.31124621582, 9.59117185059, -0.977099236641, -1.0534351145, -0.465648854962
0.7468881607055664,1.36230074463, 0.31124621582, 9.59117185059, -0.977099236641, -1.0534351145, -0.465648854962
0.7484800815582275,1.36230074463, 0.31124621582, 9.59117185059, -0.977099236641, -1.0534351145, -0.465648854962
0.7501959800720215,1.36230074463, 0.31124621582, 9.59117185059, -0.977099236641, -1.0534351145, -0.465648854962
0.7519409656524658,1.36230074463, 0.31124621582, 9.59117185059, -0.977099236641, -1.0534351145, -0.465648854962
0.7547171115875244,1.36230074463, 0.31124621582, 9.59117185059, -0.977099236641, -1.0534351145, -0.465648854962
0.7582230567932129,1.36230074463, 0.31124621582, 9.59117185059, -0.977099236641, -1.0534351145, -0.465648854962
0.7621259689331055,1.36230074463, 0.31124621582, 9.59117185059, -0.977099236641, -1.0534351145, -0.465648854962
0.7642390727996826,1.36230074463, 0.31124621582, 9.59117185059, -0.977099236641, -1.0534351145, -0.465648854962
0.7656381130218506,1.36230074463, 0.31124621582, 9.59117185059, -0.977099236641, -1.0534351145, -0.465648854962
0.7666530609130859,1.36230074463, 0.31124621582, 9.59117185059, -0.977099236641, -1.0534351145, -0.465648854962
0.7676169872283936,1.36230074463, 0.31124621582, 9.59117185059, -0.977099236641, -1.0534351145, -0.465648854962
0.7687151432037354,1.36230074463, 0.31124621582, 9.59117185059, -0.977099236641, -1.0534351145, -0.465648854962
0.769766092300415,1.36230074463, 0.31124621582, 9.59117185059, -0.977099236641, -1.0534351145, -0.465648854962
0.770747184753418,1.36230074463, 0.31124621582, 9.59117185059, -0.977099236641, -1.0534351145, -0.465648854962
0.7720050811767578,1.36230074463, 0.31124621582, 9.59117185059, -0.977099236641, -1.0534351145, -0.465648854962
0.7734510898590088,1.36230074463, 0.31124621582, 9.59117185059, -0.977099236641, -1.0534351145, -0.465648854962
0.7743539810180664,1.36230074463, 0.31124621582, 9.59117185059, -0.977099236641, -1.0534351145, -0.465648854962
0.775562047958374,1.36230074463, 0.31124621582, 9.59117185059, -0.977099236641, -1.0534351145, -0.465648854962
0.7772331237792969,1.36230074463, 0.31124621582, 9.59117185059, -0.977099236641, -1.0534351145, -0.465648854962
0.7790629863739014,1.36230074463, 0.31124621582, 9.59117185059, -0.977099236641, -1.0534351145, -0.465648854962
0.7807111740112305,1.36230074463, 0.31124621582, 9.59117185059, -0.977099236641, -1.0534351145, -0.465648854962
0.782310962677002,1.36230074463, 0.31124621582, 9.59117185059, -0.977099236641, -1.0534351145, -0.465648854962
0.7836301326751709,1.36230074463, 0.31124621582, 9.59117185059, -0.977099236641, -1.0534351145, -0.465648854962
0.7860031127929688,1.36230074463, 0.31124621582, 9.59117185059, -0.977099236641, -1.0534351145, -0.465648854962
0.7899231910705566,1.36230074463, 0.31124621582, 9.59117185059, -0.977099236641, -1.0534351145, -0.465648854962
0.7929890155792236,1.36230074463, 0.31124621582, 9.59117185059, -0.977099236641, -1.0534351145, -0.465648854962
0.7949471473693848,1.36230074463, 0.31124621582, 9.59117185059, -0.977099236641, -1.0534351145, -0.465648854962
0.7966389656066895,1.36230074463, 0.31124621582, 9.59117185059, -0.977099236641, -1.0534351145, -0.465648854962
0.7982680797576904,1.36230074463, 0.31124621582, 9.59117185059, -0.977099236641, -1.0534351145, -0.465648854962
0.8018491268157959,1.36230074463, 0.31124621582, 9.59117185059, -0.977099236641, -1.0534351145, -0.465648854962
0.8030190467834473,1.36230074463, 0.31124621582, 9.59117185059, -0.977099236641, -1.0534351145, -0.465648854962
0.8045241832733154,1.36230074463, 0.31124621582, 9.59117185059, -0.977099236641, -1.0534351145, -0.465648854962
0.8055710792541504,1.36230074463, 0.31124621582, 9.59117185059, -0.977099236641, -1.0534351145, -0.465648854962
0.8067710399627686,1.36230074463, 0.31124621582, 9.59117185059, -0.977099236641, -1.0534351145, -0.465648854962
0.8083250522613525,1.36230074463, 0.31124621582, 9.59117185059, -0.977099236641, -1.0534351145, -0.465648854962
0.8103389739990234,1.36230074463, 0.31124621582, 9.59117185059, -0.977099236641, -1.0534351145, -0.465648854962
0.8124411106109619,1.36230074463, 0.31124621582, 9.59117185059, -0.977099236641, -1.0534351145, -0.465648854962
0.8160490989685059,1.36230074463, 0.31124621582, 9.59117185059, -0.977099236641, -1.0534351145, -0.465648854962
0.8204660415649414,1.43652099609, 0.251391174316, 9.61032546387, -0.984732824427, -1.0534351145, -0.427480916031
0.8230540752410889,1.43652099609, 0.251391174316, 9.61032546387, -0.984732824427, -1.0534351145, -0.427480916031
0.8273730278015137,1.43652099609, 0.251391174316, 9.61032546387, -0.984732824427, -1.0534351145, -0.427480916031
0.8290071487426758,1.43652099609, 0.251391174316, 9.61032546387, -0.984732824427, -1.0534351145, -0.427480916031
0.830517053604126,1.43652099609, 0.251391174316, 9.61032546387, -0.984732824427, -1.0534351145, -0.427480916031
0.832456111907959,1.43652099609, 0.251391174316, 9.61032546387, -0.984732824427, -1.0534351145, -0.427480916031
0.8339860439300537,1.43652099609, 0.251391174316, 9.61032546387, -0.984732824427, -1.0534351145, -0.427480916031
0.8356571197509766,1.43652099609, 0.251391174316, 9.61032546387, -0.984732824427, -1.0534351145, -0.427480916031
0.837083101272583,1.43652099609, 0.251391174316, 9.61032546387, -0.984732824427, -1.0534351145, -0.427480916031
0.838608980178833,1.43652099609, 0.251391174316, 9.61032546387, -0.984732824427, -1.0534351145, -0.427480916031
0.8404221534729004,1.43652099609, 0.251391174316, 9.61032546387, -0.984732824427, -1.0534351145, -0.427480916031
0.8425099849700928,1.43652099609, 0.251391174316, 9.61032546387, -0.984732824427, -1.0534351145, -0.427480916031
0.844689130783081,1.43652099609, 0.251391174316, 9.61032546387, -0.984732824427, -1.0534351145, -0.427480916031
0.8483860492706299,1.43652099609, 0.251391174316, 9.61032546387, -0.984732824427, -1.0534351145, -0.427480916031
0.8511581420898438,1.43652099609, 0.251391174316, 9.61032546387, -0.984732824427, -1.0534351145, -0.427480916031
0.854525089263916,1.43652099609, 0.251391174316, 9.61032546387, -0.984732824427, -1.0534351145, -0.427480916031
0.8562750816345215,1.43652099609, 0.251391174316, 9.61032546387, -0.984732824427, -1.0534351145, -0.427480916031
0.8577001094818115,1.43652099609, 0.251391174316, 9.61032546387, -0.984732824427, -1.0534351145, -0.427480916031
0.8591601848602295,1.43652099609, 0.251391174316, 9.61032546387, -0.984732824427, -1.0534351145, -0.427480916031
0.860741138458252,1.43652099609, 0.251391174316, 9.61032546387, -0.984732824427, -1.0534351145, -0.427480916031
0.8628990650177002,1.43652099609, 0.251391174316, 9.61032546387, -0.984732824427, -1.0534351145, -0.427480916031
0.8646371364593506,1.43652099609, 0.251391174316, 9.61032546387, -0.984732824427, -1.0534351145, -0.427480916031
0.8659851551055908,1.43652099609, 0.251391174316, 9.61032546387, -0.984732824427, -1.0534351145, -0.427480916031
0.8674240112304688,1.43652099609, 0.251391174316, 9.61032546387, -0.984732824427, -1.0534351145, -0.427480916031
0.8693821430206299,1.43652099609, 0.251391174316, 9.61032546387, -0.984732824427, -1.0534351145, -0.427480916031
0.8715121746063232,1.43652099609, 0.251391174316, 9.61032546387, -0.984732824427, -1.0534351145, -0.427480916031
0.8752861022949219,1.43652099609, 0.251391174316, 9.61032546387, -0.984732824427, -1.0534351145, -0.427480916031
0.8777120113372803,1.43652099609, 0.251391174316, 9.61032546387, -0.984732824427, -1.0534351145, -0.427480916031
0.8801071643829346,1.43652099609, 0.251391174316, 9.61032546387, -0.984732824427, -1.0534351145, -0.427480916031
0.8818421363830566,1.43652099609, 0.251391174316, 9.61032546387, -0.984732824427, -1.0534351145, -0.427480916031
0.88338303565979,1.43652099609, 0.251391174316, 9.61032546387, -0.984732824427, -1.0534351145, -0.427480916031
0.8847451210021973,1.43652099609, 0.251391174316, 9.61032546387, -0.984732824427, -1.0534351145, -0.427480916031
0.8862290382385254,1.43652099609, 0.251391174316, 9.61032546387, -0.984732824427, -1.0534351145, -0.427480916031
0.8875820636749268,1.43652099609, 0.251391174316, 9.61032546387, -0.984732824427, -1.0534351145, -0.427480916031
0.8893101215362549,1.43652099609, 0.251391174316, 9.61032546387, -0.984732824427, -1.0534351145, -0.427480916031
0.8908021450042725,1.43652099609, 0.251391174316, 9.61032546387, -0.984732824427, -1.0534351145, -0.427480916031
0.8943831920623779,1.43652099609, 0.251391174316, 9.61032546387, -0.984732824427, -1.0534351145, -0.427480916031
0.8958239555358887,1.43652099609, 0.251391174316, 9.61032546387, -0.984732824427, -1.0534351145, -0.427480916031
0.8969149589538574,1.43652099609, 0.251391174316, 9.61032546387, -0.984732824427, -1.0534351145, -0.427480916031
0.8979840278625488,1.43652099609, 0.251391174316, 9.61032546387, -0.984732824427, -1.0534351145, -0.427480916031
0.9001030921936035,1.43652099609, 0.251391174316, 9.61032546387, -0.984732824427, -1.0534351145, -0.427480916031
0.9018771648406982,1.43652099609, 0.251391174316, 9.61032546387, -0.984732824427, -1.0534351145, -0.427480916031
0.9038851261138916,1.43652099609, 0.251391174316, 9.61032546387, -0.984732824427, -1.0534351145, -0.427480916031
0.9071440696716309,1.43652099609, 0.251391174316, 9.61032546387, -0.984732824427, -1.0534351145, -0.427480916031
0.909250020980835,1.43652099609, 0.251391174316, 9.61032546387, -0.984732824427, -1.0534351145, -0.427480916031
0.9113161563873291,1.43652099609, 0.251391174316, 9.61032546387, -0.984732824427, -1.0534351145, -0.427480916031
0.913275957107544,1.43652099609, 0.251391174316, 9.61032546387, -0.984732824427, -1.0534351145, -0.427480916031
0.9151589870452881,1.43652099609, 0.251391174316, 9.61032546387, -0.984732824427, -1.0534351145, -0.427480916031
0.9187061786651611,1.38384855957, 0.30406361084, 9.60314285889, -0.839694656489, -1.09923664122, -0.381679389313
0.920417070388794,1.38384855957, 0.30406361084, 9.60314285889, -0.839694656489, -1.09923664122, -0.381679389313
0.9222490787506104,1.38384855957, 0.30406361084, 9.60314285889, -0.839694656489, -1.09923664122, -0.381679389313
0.9264140129089355,1.38384855957, 0.30406361084, 9.60314285889, -0.839694656489, -1.09923664122, -0.381679389313
0.9278490543365479,1.38384855957, 0.30406361084, 9.60314285889, -0.839694656489, -1.09923664122, -0.381679389313
0.9293670654296875,1.38384855957, 0.30406361084, 9.60314285889, -0.839694656489, -1.09923664122, -0.381679389313
0.9314479827880859,1.38384855957, 0.30406361084, 9.60314285889, -0.839694656489, -1.09923664122, -0.381679389313
0.933509111404419,1.38384855957, 0.30406361084, 9.60314285889, -0.839694656489, -1.09923664122, -0.381679389313
0.9354779720306396,1.38384855957, 0.30406361084, 9.60314285889, -0.839694656489, -1.09923664122, -0.381679389313
0.9396841526031494,1.38384855957, 0.30406361084, 9.60314285889, -0.839694656489, -1.09923664122, -0.381679389313
0.9426560401916504,1.38384855957, 0.30406361084, 9.60314285889, -0.839694656489, -1.09923664122, -0.381679389313
0.9452130794525146,1.38384855957, 0.30406361084, 9.60314285889, -0.839694656489, -1.09923664122, -0.381679389313
0.9467601776123047,1.38384855957, 0.30406361084, 9.60314285889, -0.839694656489, -1.09923664122, -0.381679389313
0.9482040405273438,1.38384855957, 0.30406361084, 9.60314285889, -0.839694656489, -1.09923664122, -0.381679389313
0.9496710300445557,1.38384855957, 0.30406361084, 9.60314285889, -0.839694656489, -1.09923664122, -0.381679389313
0.951322078704834,1.38384855957, 0.30406361084, 9.60314285889, -0.839694656489, -1.09923664122, -0.381679389313
0.952890157699585,1.38384855957, 0.30406361084, 9.60314285889, -0.839694656489, -1.09923664122, -0.381679389313
0.9544951915740967,1.38384855957, 0.30406361084, 9.60314285889, -0.839694656489, -1.09923664122, -0.381679389313
0.9559521675109863,1.38384855957, 0.30406361084, 9.60314285889, -0.839694656489, -1.09923664122, -0.381679389313
0.9575021266937256,1.38384855957, 0.30406361084, 9.60314285889, -0.839694656489, -1.09923664122, -0.381679389313
0.9590799808502197,1.38384855957, 0.30406361084, 9.60314285889, -0.839694656489, -1.09923664122, -0.381679389313
0.9608900547027588,1.38384855957, 0.30406361084, 9.60314285889, -0.839694656489, -1.09923664122, -0.381679389313
0.9625539779663086,1.38384855957, 0.30406361084, 9.60314285889, -0.839694656489, -1.09923664122, -0.381679389313
0.9640250205993652,1.38384855957, 0.30406361084, 9.60314285889, -0.839694656489, -1.09923664122, -0.381679389313
0.9654669761657715,1.38384855957, 0.30406361084, 9.60314285889, -0.839694656489, -1.09923664122, -0.381679389313
0.9668431282043457,1.38384855957, 0.30406361084, 9.60314285889, -0.839694656489, -1.09923664122, -0.381679389313
0.9682719707489014,1.38384855957, 0.30406361084, 9.60314285889, -0.839694656489, -1.09923664122, -0.381679389313
0.9702961444854736,1.38384855957, 0.30406361084, 9.60314285889, -0.839694656489, -1.09923664122, -0.381679389313
0.9740560054779053,1.38384855957, 0.30406361084, 9.60314285889, -0.839694656489, -1.09923664122, -0.381679389313
0.9767811298370361,1.38384855957, 0.30406361084, 9.60314285889, -0.839694656489, -1.09923664122, -0.381679389313
0.9794130325317383,1.38384855957, 0.30406361084, 9.60314285889, -0.839694656489, -1.09923664122, -0.381679389313
0.9810621738433838,1.38384855957, 0.30406361084, 9.60314285889, -0.839694656489, -1.09923664122, -0.381679389313
0.983605146408081,1.38384855957, 0.30406361084, 9.60314285889, -0.839694656489, -1.09923664122, -0.381679389313
0.9850170612335205,1.38384855957, 0.30406361084, 9.60314285889, -0.839694656489, -1.09923664122, -0.381679389313
0.986457109451294,1.38384855957, 0.30406361084, 9.60314285889, -0.839694656489, -1.09923664122, -0.381679389313
0.9882149696350098,1.38384855957, 0.30406361084, 9.60314285889, -0.839694656489, -1.09923664122, -0.381679389313
0.990380048751831,1.38384855957, 0.30406361084, 9.60314285889, -0.839694656489, -1.09923664122, -0.381679389313
0.9931020736694336,1.38384855957, 0.30406361084, 9.60314285889, -0.839694656489, -1.09923664122, -0.381679389313
0.9988009929656982,1.38384855957, 0.30406361084, 9.60314285889, -0.839694656489, -1.09923664122, -0.381679389313
1.0021131038665771,1.38384855957, 0.30406361084, 9.60314285889, -0.839694656489, -1.09923664122, -0.381679389313
1.0045740604400635,1.38384855957, 0.30406361084, 9.60314285889, -0.839694656489, -1.09923664122, -0.381679389313
1.0063271522521973,1.38384855957, 0.30406361084, 9.60314285889, -0.839694656489, -1.09923664122, -0.381679389313
1.0076980590820312,1.38384855957, 0.30406361084, 9.60314285889, -0.839694656489, -1.09923664122, -0.381679389313
1.0091991424560547,1.38384855957, 0.30406361084, 9.60314285889, -0.839694656489, -1.09923664122, -0.381679389313
1.0106241703033447,1.38384855957, 0.30406361084, 9.60314285889, -0.839694656489, -1.09923664122, -0.381679389313
1.0123541355133057,1.38384855957, 0.30406361084, 9.60314285889, -0.839694656489, -1.09923664122, -0.381679389313
1.0139391422271729,1.38384855957, 0.30406361084, 9.60314285889, -0.839694656489, -1.09923664122, -0.381679389313
1.017773151397705,1.40060797119, 0.241814367676, 9.61990227051, -0.961832061069, -0.977099236641, -0.381679389313
1.019625186920166,1.40060797119, 0.241814367676, 9.61990227051, -0.961832061069, -0.977099236641, -0.381679389313
1.0213050842285156,1.40060797119, 0.241814367676, 9.61990227051, -0.961832061069, -0.977099236641, -0.381679389313
1.0264980792999268,1.40060797119, 0.241814367676, 9.61990227051, -0.961832061069, -0.977099236641, -0.381679389313
1.029555082321167,1.40060797119, 0.241814367676, 9.61990227051, -0.961832061069, -0.977099236641, -0.381679389313
1.0325779914855957,1.40060797119, 0.241814367676, 9.61990227051, -0.961832061069, -0.977099236641, -0.381679389313
1.0354740619659424,1.40060797119, 0.241814367676, 9.61990227051, -0.961832061069, -0.977099236641, -0.381679389313
1.0372960567474365,1.40060797119, 0.241814367676, 9.61990227051, -0.961832061069, -0.977099236641, -0.381679389313
1.0384750366210938,1.40060797119, 0.241814367676, 9.61990227051, -0.961832061069, -0.977099236641, -0.381679389313
1.0395829677581787,1.40060797119, 0.241814367676, 9.61990227051, -0.961832061069, -0.977099236641, -0.381679389313
1.0405781269073486,1.40060797119, 0.241814367676, 9.61990227051, -0.961832061069, -0.977099236641, -0.381679389313
1.0418200492858887,1.40060797119, 0.241814367676, 9.61990227051, -0.961832061069, -0.977099236641, -0.381679389313
1.0428149700164795,1.40060797119, 0.241814367676, 9.61990227051, -0.961832061069, -0.977099236641, -0.381679389313
1.043895959854126,1.40060797119, 0.241814367676, 9.61990227051, -0.961832061069, -0.977099236641, -0.381679389313
1.0450770854949951,1.40060797119, 0.241814367676, 9.61990227051, -0.961832061069, -0.977099236641, -0.381679389313
1.0460870265960693,1.40060797119, 0.241814367676, 9.61990227051, -0.961832061069, -0.977099236641, -0.381679389313
1.0470480918884277,1.40060797119, 0.241814367676, 9.61990227051, -0.961832061069, -0.977099236641, -0.381679389313
1.0480241775512695,1.40060797119, 0.241814367676, 9.61990227051, -0.961832061069, -0.977099236641, -0.381679389313
1.0495550632476807,1.40060797119, 0.241814367676, 9.61990227051, -0.961832061069, -0.977099236641, -0.381679389313
1.0513010025024414,1.40060797119, 0.241814367676, 9.61990227051, -0.961832061069, -0.977099236641, -0.381679389313
1.0528521537780762,1.40060797119, 0.241814367676, 9.61990227051, -0.961832061069, -0.977099236641, -0.381679389313
1.0546150207519531,1.40060797119, 0.241814367676, 9.61990227051, -0.961832061069, -0.977099236641, -0.381679389313
1.0564310550689697,1.40060797119, 0.241814367676, 9.61990227051, -0.961832061069, -0.977099236641, -0.381679389313
1.058643102645874,1.40060797119, 0.241814367676, 9.61990227051, -0.961832061069, -0.977099236641, -0.381679389313
1.0615291595458984,1.40060797119, 0.241814367676, 9.61990227051, -0.961832061069, -0.977099236641, -0.381679389313
1.0665781497955322,1.40060797119, 0.241814367676, 9.61990227051, -0.961832061069, -0.977099236641, -0.381679389313
1.0688910484313965,1.40060797119, 0.241814367676, 9.61990227051, -0.961832061069, -0.977099236641, -0.381679389313
1.0706651210784912,1.40060797119, 0.241814367676, 9.61990227051, -0.961832061069, -0.977099236641, -0.381679389313
1.0723390579223633,1.40060797119, 0.241814367676, 9.61990227051, -0.961832061069, -0.977099236641, -0.381679389313
1.0741591453552246,1.40060797119, 0.241814367676, 9.61990227051, -0.961832061069, -0.977099236641, -0.381679389313
1.0758490562438965,1.40060797119, 0.241814367676, 9.61990227051, -0.961832061069, -0.977099236641, -0.381679389313
1.0774459838867188,1.40060797119, 0.241814367676, 9.61990227051, -0.961832061069, -0.977099236641, -0.381679389313
1.0789191722869873,1.40060797119, 0.241814367676, 9.61990227051, -0.961832061069, -0.977099236641, -0.381679389313
1.080268144607544,1.40060797119, 0.241814367676, 9.61990227051, -0.961832061069, -0.977099236641, -0.381679389313
1.0822160243988037,1.40060797119, 0.241814367676, 9.61990227051, -0.961832061069, -0.977099236641, -0.381679389313
1.0839660167694092,1.40060797119, 0.241814367676, 9.61990227051, -0.961832061069, -0.977099236641, -0.381679389313
1.0859181880950928,1.40060797119, 0.241814367676, 9.61990227051, -0.961832061069, -0.977099236641, -0.381679389313
1.0899181365966797,1.40060797119, 0.241814367676, 9.61990227051, -0.961832061069, -0.977099236641, -0.381679389313
1.0932559967041016,1.40060797119, 0.241814367676, 9.61990227051, -0.961832061069, -0.977099236641, -0.381679389313
1.0957341194152832,1.40060797119, 0.241814367676, 9.61990227051, -0.961832061069, -0.977099236641, -0.381679389313
1.1002931594848633,1.40060797119, 0.241814367676, 9.61990227051, -0.961832061069, -0.977099236641, -0.381679389313
1.1022181510925293,1.40060797119, 0.241814367676, 9.61990227051, -0.961832061069, -0.977099236641, -0.381679389313
1.1039700508117676,1.40060797119, 0.241814367676, 9.61990227051, -0.961832061069, -0.977099236641, -0.381679389313
1.1055991649627686,1.40060797119, 0.241814367676, 9.61990227051, -0.961832061069, -0.977099236641, -0.381679389313
1.107254981994629,1.40060797119, 0.241814367676, 9.61990227051, -0.961832061069, -0.977099236641, -0.381679389313
1.1089160442352295,1.40060797119, 0.241814367676, 9.61990227051, -0.961832061069, -0.977099236641, -0.381679389313
1.110753059387207,1.40060797119, 0.241814367676, 9.61990227051, -0.961832061069, -0.977099236641, -0.381679389313
1.1124281883239746,1.40060797119, 0.241814367676, 9.61990227051, -0.961832061069, -0.977099236641, -0.381679389313
1.115476131439209,1.40060797119, 0.241814367676, 9.61990227051, -0.961832061069, -0.977099236641, -0.381679389313
1.1198220252990723,1.45328040771, 0.31124621582, 9.63187327881, -1.0, -1.32824427481, -0.381679389313
1.1239089965820312,1.45328040771, 0.31124621582, 9.63187327881, -1.0, -1.32824427481, -0.381679389313
1.1297011375427246,1.45328040771, 0.31124621582, 9.63187327881, -1.0, -1.32824427481, -0.381679389313
1.1321041584014893,1.45328040771, 0.31124621582, 9.63187327881, -1.0, -1.32824427481, -0.381679389313
1.1337521076202393,1.45328040771, 0.31124621582, 9.63187327881, -1.0, -1.32824427481, -0.381679389313
1.135329008102417,1.45328040771, 0.31124621582, 9.63187327881, -1.0, -1.32824427481, -0.381679389313
1.1369421482086182,1.45328040771, 0.31124621582, 9.63187327881, -1.0, -1.32824427481, -0.381679389313
1.1385300159454346,1.45328040771, 0.31124621582, 9.63187327881, -1.0, -1.32824427481, -0.381679389313
1.1401400566101074,1.45328040771, 0.31124621582, 9.63187327881, -1.0, -1.32824427481, -0.381679389313
1.1420249938964844,1.45328040771, 0.31124621582, 9.63187327881, -1.0, -1.32824427481, -0.381679389313
1.1437900066375732,1.45328040771, 0.31124621582, 9.63187327881, -1.0, -1.32824427481, -0.381679389313
1.1455540657043457,1.45328040771, 0.31124621582, 9.63187327881, -1.0, -1.32824427481, -0.381679389313
1.1476521492004395,1.45328040771, 0.31124621582, 9.63187327881, -1.0, -1.32824427481, -0.381679389313
1.1497180461883545,1.45328040771, 0.31124621582, 9.63187327881, -1.0, -1.32824427481, -0.381679389313
1.1550111770629883,1.45328040771, 0.31124621582, 9.63187327881, -1.0, -1.32824427481, -0.381679389313
1.15718412399292,1.45328040771, 0.31124621582, 9.63187327881, -1.0, -1.32824427481, -0.381679389313
1.1594431400299072,1.45328040771, 0.31124621582, 9.63187327881, -1.0, -1.32824427481, -0.381679389313
1.1620080471038818,1.45328040771, 0.31124621582, 9.63187327881, -1.0, -1.32824427481, -0.381679389313
1.1635780334472656,1.45328040771, 0.31124621582, 9.63187327881, -1.0, -1.32824427481, -0.381679389313
1.164963960647583,1.45328040771, 0.31124621582, 9.63187327881, -1.0, -1.32824427481, -0.381679389313
1.1666181087493896,1.45328040771, 0.31124621582, 9.63187327881, -1.0, -1.32824427481, -0.381679389313
1.167809009552002,1.45328040771, 0.31124621582, 9.63187327881, -1.0, -1.32824427481, -0.381679389313
1.1693429946899414,1.45328040771, 0.31124621582, 9.63187327881, -1.0, -1.32824427481, -0.381679389313
1.1711630821228027,1.45328040771, 0.31124621582, 9.63187327881, -1.0, -1.32824427481, -0.381679389313
1.1726431846618652,1.45328040771, 0.31124621582, 9.63187327881, -1.0, -1.32824427481, -0.381679389313
1.174354076385498,1.45328040771, 0.31124621582, 9.63187327881, -1.0, -1.32824427481, -0.381679389313
1.1763720512390137,1.45328040771, 0.31124621582, 9.63187327881, -1.0, -1.32824427481, -0.381679389313
1.1792681217193604,1.45328040771, 0.31124621582, 9.63187327881, -1.0, -1.32824427481, -0.381679389313
1.1832611560821533,1.45328040771, 0.31124621582, 9.63187327881, -1.0, -1.32824427481, -0.381679389313
1.186082124710083,1.45328040771, 0.31124621582, 9.63187327881, -1.0, -1.32824427481, -0.381679389313
1.1883959770202637,1.45328040771, 0.31124621582, 9.63187327881, -1.0, -1.32824427481, -0.381679389313
1.1904621124267578,1.45328040771, 0.31124621582, 9.63187327881, -1.0, -1.32824427481, -0.381679389313
1.1947109699249268,1.45328040771, 0.31124621582, 9.63187327881, -1.0, -1.32824427481, -0.381679389313
1.1958301067352295,1.45328040771, 0.31124621582, 9.63187327881, -1.0, -1.32824427481, -0.381679389313
1.1974780559539795,1.45328040771, 0.31124621582, 9.63187327881, -1.0, -1.32824427481, -0.381679389313
1.1991469860076904,1.45328040771, 0.31124621582, 9.63187327881, -1.0, -1.32824427481, -0.381679389313
1.2005720138549805,1.45328040771, 0.31124621582, 9.63187327881, -1.0, -1.32824427481, -0.381679389313
1.202341079711914,1.45328040771, 0.31124621582, 9.63187327881, -1.0, -1.32824427481, -0.381679389313
1.204172134399414,1.45328040771, 0.31124621582, 9.63187327881, -1.0, -1.32824427481, -0.381679389313
1.2057240009307861,1.45328040771, 0.31124621582, 9.63187327881, -1.0, -1.32824427481, -0.381679389313
1.207646131515503,1.45328040771, 0.31124621582, 9.63187327881, -1.0, -1.32824427481, -0.381679389313
1.2128901481628418,1.45328040771, 0.31124621582, 9.63187327881, -1.0, -1.32824427481, -0.381679389313
1.2167561054229736,1.45328040771, 0.31124621582, 9.63187327881, -1.0, -1.32824427481, -0.381679389313
1.2230620384216309,1.47003981934, 0.222660754395, 9.61750806885, -0.969465648855, -1.07633587786, -0.36641221374
1.2277259826660156,1.47003981934, 0.222660754395, 9.61750806885, -0.969465648855, -1.07633587786, -0.36641221374
1.2298130989074707,1.47003981934, 0.222660754395, 9.61750806885, -0.969465648855, -1.07633587786, -0.36641221374
1.2330191135406494,1.47003981934, 0.222660754395, 9.61750806885, -0.969465648855, -1.07633587786, -0.36641221374
1.234856128692627,1.47003981934, 0.222660754395, 9.61750806885, -0.969465648855, -1.07633587786, -0.36641221374
1.2370731830596924,1.47003981934, 0.222660754395, 9.61750806885, -0.969465648855, -1.07633587786, -0.36641221374
1.2391021251678467,1.47003981934, 0.222660754395, 9.61750806885, -0.969465648855, -1.07633587786, -0.36641221374
1.2444779872894287,1.47003981934, 0.222660754395, 9.61750806885, -0.969465648855, -1.07633587786, -0.36641221374
1.247709035873413,1.47003981934, 0.222660754395, 9.61750806885, -0.969465648855, -1.07633587786, -0.36641221374
1.2501881122589111,1.47003981934, 0.222660754395, 9.61750806885, -0.969465648855, -1.07633587786, -0.36641221374
1.2518181800842285,1.47003981934, 0.222660754395, 9.61750806885, -0.969465648855, -1.07633587786, -0.36641221374
1.253443956375122,1.47003981934, 0.222660754395, 9.61750806885, -0.969465648855, -1.07633587786, -0.36641221374
1.2551319599151611,1.47003981934, 0.222660754395, 9.61750806885, -0.969465648855, -1.07633587786, -0.36641221374
1.25689697265625,1.47003981934, 0.222660754395, 9.61750806885, -0.969465648855, -1.07633587786, -0.36641221374
1.2585480213165283,1.47003981934, 0.222660754395, 9.61750806885, -0.969465648855, -1.07633587786, -0.36641221374
1.2602341175079346,1.47003981934, 0.222660754395, 9.61750806885, -0.969465648855, -1.07633587786, -0.36641221374
1.2628071308135986,1.47003981934, 0.222660754395, 9.61750806885, -0.969465648855, -1.07633587786, -0.36641221374
1.263965129852295,1.47003981934, 0.222660754395, 9.61750806885, -0.969465648855, -1.07633587786, -0.36641221374
1.2650160789489746,1.47003981934, 0.222660754395, 9.61750806885, -0.969465648855, -1.07633587786, -0.36641221374
1.2664661407470703,1.47003981934, 0.222660754395, 9.61750806885, -0.969465648855, -1.07633587786, -0.36641221374
1.2681260108947754,1.47003981934, 0.222660754395, 9.61750806885, -0.969465648855, -1.07633587786, -0.36641221374
1.272435188293457,1.47003981934, 0.222660754395, 9.61750806885, -0.969465648855, -1.07633587786, -0.36641221374
1.2749590873718262,1.47003981934, 0.222660754395, 9.61750806885, -0.969465648855, -1.07633587786, -0.36641221374
1.2770030498504639,1.47003981934, 0.222660754395, 9.61750806885, -0.969465648855, -1.07633587786, -0.36641221374
1.278191089630127,1.47003981934, 0.222660754395, 9.61750806885, -0.969465648855, -1.07633587786, -0.36641221374
1.279299020767212,1.47003981934, 0.222660754395, 9.61750806885, -0.969465648855, -1.07633587786, -0.36641221374
1.280527114868164,1.47003981934, 0.222660754395, 9.61750806885, -0.969465648855, -1.07633587786, -0.36641221374
1.2820250988006592,1.47003981934, 0.222660754395, 9.61750806885, -0.969465648855, -1.07633587786, -0.36641221374
1.2831921577453613,1.47003981934, 0.222660754395, 9.61750806885, -0.969465648855, -1.07633587786, -0.36641221374
1.2850899696350098,1.47003981934, 0.222660754395, 9.61750806885, -0.969465648855, -1.07633587786, -0.36641221374
1.286756992340088,1.47003981934, 0.222660754395, 9.61750806885, -0.969465648855, -1.07633587786, -0.36641221374
1.2883470058441162,1.47003981934, 0.222660754395, 9.61750806885, -0.969465648855, -1.07633587786, -0.36641221374
1.2905051708221436,1.47003981934, 0.222660754395, 9.61750806885, -0.969465648855, -1.07633587786, -0.36641221374
1.2931511402130127,1.47003981934, 0.222660754395, 9.61750806885, -0.969465648855, -1.07633587786, -0.36641221374
1.294957160949707,1.47003981934, 0.222660754395, 9.61750806885, -0.969465648855, -1.07633587786, -0.36641221374
1.2965800762176514,1.47003981934, 0.222660754395, 9.61750806885, -0.969465648855, -1.07633587786, -0.36641221374
1.3005621433258057,1.47003981934, 0.222660754395, 9.61750806885, -0.969465648855, -1.07633587786, -0.36641221374
1.3030641078948975,1.47003981934, 0.222660754395, 9.61750806885, -0.969465648855, -1.07633587786, -0.36641221374
1.3054521083831787,1.47003981934, 0.222660754395, 9.61750806885, -0.969465648855, -1.07633587786, -0.36641221374
1.3094570636749268,1.47003981934, 0.222660754395, 9.61750806885, -0.969465648855, -1.07633587786, -0.36641221374
1.3131351470947266,1.47003981934, 0.222660754395, 9.61750806885, -0.969465648855, -1.07633587786, -0.36641221374
1.3158721923828125,1.47003981934, 0.222660754395, 9.61750806885, -0.969465648855, -1.07633587786, -0.36641221374
1.317929983139038,1.47003981934, 0.222660754395, 9.61750806885, -0.969465648855, -1.07633587786, -0.36641221374
1.3223011493682861,1.45806881104, 0.325611425781, 9.61511386719, -0.946564885496, -0.961832061069, -0.412213740458
1.3242590427398682,1.45806881104, 0.325611425781, 9.61511386719, -0.946564885496, -0.961832061069, -0.412213740458
1.3258299827575684,1.45806881104, 0.325611425781, 9.61511386719, -0.946564885496, -0.961832061069, -0.412213740458
1.330449104309082,1.45806881104, 0.325611425781, 9.61511386719, -0.946564885496, -0.961832061069, -0.412213740458
1.3331019878387451,1.45806881104, 0.325611425781, 9.61511386719, -0.946564885496, -0.961832061069, -0.412213740458
1.3369851112365723,1.45806881104, 0.325611425781, 9.61511386719, -0.946564885496, -0.961832061069, -0.412213740458
1.339704990386963,1.45806881104, 0.325611425781, 9.61511386719, -0.946564885496, -0.961832061069, -0.412213740458
1.3422369956970215,1.45806881104, 0.325611425781, 9.61511386719, -0.946564885496, -0.961832061069, -0.412213740458
1.3445441722869873,1.45806881104, 0.325611425781, 9.61511386719, -0.946564885496, -0.961832061069, -0.412213740458
1.3462460041046143,1.45806881104, 0.325611425781, 9.61511386719, -0.946564885496, -0.961832061069, -0.412213740458
1.347905158996582,1.45806881104, 0.325611425781, 9.61511386719, -0.946564885496, -0.961832061069, -0.412213740458
1.349524974822998,1.45806881104, 0.325611425781, 9.61511386719, -0.946564885496, -0.961832061069, -0.412213740458
1.35135817527771,1.45806881104, 0.325611425781, 9.61511386719, -0.946564885496, -0.961832061069, -0.412213740458
1.3529419898986816,1.45806881104, 0.325611425781, 9.61511386719, -0.946564885496, -0.961832061069, -0.412213740458
1.3547229766845703,1.45806881104, 0.325611425781, 9.61511386719, -0.946564885496, -0.961832061069, -0.412213740458
1.3569300174713135,1.45806881104, 0.325611425781, 9.61511386719, -0.946564885496, -0.961832061069, -0.412213740458
1.359032154083252,1.45806881104, 0.325611425781, 9.61511386719, -0.946564885496, -0.961832061069, -0.412213740458
1.361246109008789,1.45806881104, 0.325611425781, 9.61511386719, -0.946564885496, -0.961832061069, -0.412213740458
1.3664209842681885,1.45806881104, 0.325611425781, 9.61511386719, -0.946564885496, -0.961832061069, -0.412213740458
1.3698949813842773,1.45806881104, 0.325611425781, 9.61511386719, -0.946564885496, -0.961832061069, -0.412213740458
1.3718321323394775,1.45806881104, 0.325611425781, 9.61511386719, -0.946564885496, -0.961832061069, -0.412213740458
1.3736631870269775,1.45806881104, 0.325611425781, 9.61511386719, -0.946564885496, -0.961832061069, -0.412213740458
1.3756699562072754,1.45806881104, 0.325611425781, 9.61511386719, -0.946564885496, -0.961832061069, -0.412213740458
1.3769581317901611,1.45806881104, 0.325611425781, 9.61511386719, -0.946564885496, -0.961832061069, -0.412213740458
1.3780629634857178,1.45806881104, 0.325611425781, 9.61511386719, -0.946564885496, -0.961832061069, -0.412213740458
1.3791821002960205,1.45806881104, 0.325611425781, 9.61511386719, -0.946564885496, -0.961832061069, -0.412213740458
1.3805580139160156,1.45806881104, 0.325611425781, 9.61511386719, -0.946564885496, -0.961832061069, -0.412213740458
1.3819200992584229,1.45806881104, 0.325611425781, 9.61511386719, -0.946564885496, -0.961832061069, -0.412213740458
1.3837800025939941,1.45806881104, 0.325611425781, 9.61511386719, -0.946564885496, -0.961832061069, -0.412213740458
1.3850440979003906,1.45806881104, 0.325611425781, 9.61511386719, -0.946564885496, -0.961832061069, -0.412213740458
1.3861541748046875,1.45806881104, 0.325611425781, 9.61511386719, -0.946564885496, -0.961832061069, -0.412213740458
1.3872511386871338,1.45806881104, 0.325611425781, 9.61511386719, -0.946564885496, -0.961832061069, -0.412213740458
1.388404130935669,1.45806881104, 0.325611425781, 9.61511386719, -0.946564885496, -0.961832061069, -0.412213740458
1.3905820846557617,1.45806881104, 0.325611425781, 9.61511386719, -0.946564885496, -0.961832061069, -0.412213740458
1.3977980613708496,1.45806881104, 0.325611425781, 9.61511386719, -0.946564885496, -0.961832061069, -0.412213740458
1.4002320766448975,1.45806881104, 0.325611425781, 9.61511386719, -0.946564885496, -0.961832061069, -0.412213740458
1.4024081230163574,1.45806881104, 0.325611425781, 9.61511386719, -0.946564885496, -0.961832061069, -0.412213740458
1.403939962387085,1.45806881104, 0.325611425781, 9.61511386719, -0.946564885496, -0.961832061069, -0.412213740458
1.4053471088409424,1.45806881104, 0.325611425781, 9.61511386719, -0.946564885496, -0.961832061069, -0.412213740458
1.4068269729614258,1.45806881104, 0.325611425781, 9.61511386719, -0.946564885496, -0.961832061069, -0.412213740458
1.409546136856079,1.45806881104, 0.325611425781, 9.61511386719, -0.946564885496, -0.961832061069, -0.412213740458
1.4114861488342285,1.45806881104, 0.325611425781, 9.61511386719, -0.946564885496, -0.961832061069, -0.412213740458
1.41316819190979,1.45806881104, 0.325611425781, 9.61511386719, -0.946564885496, -0.961832061069, -0.412213740458
1.4147050380706787,1.45806881104, 0.325611425781, 9.61511386719, -0.946564885496, -0.961832061069, -0.412213740458
1.4164981842041016,1.45806881104, 0.325611425781, 9.61511386719, -0.946564885496, -0.961832061069, -0.412213740458
1.4179739952087402,1.45806881104, 0.325611425781, 9.61511386719, -0.946564885496, -0.961832061069, -0.412213740458
1.419564962387085,1.45806881104, 0.325611425781, 9.61511386719, -0.946564885496, -0.961832061069, -0.412213740458
1.4247691631317139,1.38863696289, 0.3064578125, 9.64384428711, -1.0, -1.02290076336, -0.564885496183
1.4282021522521973,1.38863696289, 0.3064578125, 9.64384428711, -1.0, -1.02290076336, -0.564885496183
1.4306020736694336,1.38863696289, 0.3064578125, 9.64384428711, -1.0, -1.02290076336, -0.564885496183
1.4369621276855469,1.38863696289, 0.3064578125, 9.64384428711, -1.0, -1.02290076336, -0.564885496183
1.4393401145935059,1.38863696289, 0.3064578125, 9.64384428711, -1.0, -1.02290076336, -0.564885496183
1.441331148147583,1.38863696289, 0.3064578125, 9.64384428711, -1.0, -1.02290076336, -0.564885496183
1.4428069591522217,1.38863696289, 0.3064578125, 9.64384428711, -1.0, -1.02290076336, -0.564885496183
1.4444890022277832,1.38863696289, 0.3064578125, 9.64384428711, -1.0, -1.02290076336, -0.564885496183
1.4460880756378174,1.38863696289, 0.3064578125, 9.64384428711, -1.0, -1.02290076336, -0.564885496183
1.447901964187622,1.38863696289, 0.3064578125, 9.64384428711, -1.0, -1.02290076336, -0.564885496183
1.449385166168213,1.38863696289, 0.3064578125, 9.64384428711, -1.0, -1.02290076336, -0.564885496183
1.4515380859375,1.38863696289, 0.3064578125, 9.64384428711, -1.0, -1.02290076336, -0.564885496183
1.4535391330718994,1.38863696289, 0.3064578125, 9.64384428711, -1.0, -1.02290076336, -0.564885496183
1.45536208152771,1.38863696289, 0.3064578125, 9.64384428711, -1.0, -1.02290076336, -0.564885496183
1.457430124282837,1.38863696289, 0.3064578125, 9.64384428711, -1.0, -1.02290076336, -0.564885496183
1.4606950283050537,1.38863696289, 0.3064578125, 9.64384428711, -1.0, -1.02290076336, -0.564885496183
1.4642300605773926,1.38863696289, 0.3064578125, 9.64384428711, -1.0, -1.02290076336, -0.564885496183
1.467635154724121,1.38863696289, 0.3064578125, 9.64384428711, -1.0, -1.02290076336, -0.564885496183
1.4706470966339111,1.38863696289, 0.3064578125, 9.64384428711, -1.0, -1.02290076336, -0.564885496183
1.4725451469421387,1.38863696289, 0.3064578125, 9.64384428711, -1.0, -1.02290076336, -0.564885496183
1.474722146987915,1.38863696289, 0.3064578125, 9.64384428711, -1.0, -1.02290076336, -0.564885496183
1.4763619899749756,1.38863696289, 0.3064578125, 9.64384428711, -1.0, -1.02290076336, -0.564885496183
1.4780211448669434,1.38863696289, 0.3064578125, 9.64384428711, -1.0, -1.02290076336, -0.564885496183
1.479598045349121,1.38863696289, 0.3064578125, 9.64384428711, -1.0, -1.02290076336, -0.564885496183
1.4821059703826904,1.38863696289, 0.3064578125, 9.64384428711, -1.0, -1.02290076336, -0.564885496183
1.485888957977295,1.38863696289, 0.3064578125, 9.64384428711, -1.0, -1.02290076336, -0.564885496183
1.48940110206604,1.38863696289, 0.3064578125, 9.64384428711, -1.0, -1.02290076336, -0.564885496183
1.4930131435394287,1.38863696289, 0.3064578125, 9.64384428711, -1.0, -1.02290076336, -0.564885496183
1.4982199668884277,1.38863696289, 0.3064578125, 9.64384428711, -1.0, -1.02290076336, -0.564885496183
1.4999630451202393,1.38863696289, 0.3064578125, 9.64384428711, -1.0, -1.02290076336, -0.564885496183
1.5016310214996338,1.38863696289, 0.3064578125, 9.64384428711, -1.0, -1.02290076336, -0.564885496183
1.5027761459350586,1.38863696289, 0.3064578125, 9.64384428711, -1.0, -1.02290076336, -0.564885496183
1.5039141178131104,1.38863696289, 0.3064578125, 9.64384428711, -1.0, -1.02290076336, -0.564885496183
1.5049161911010742,1.38863696289, 0.3064578125, 9.64384428711, -1.0, -1.02290076336, -0.564885496183
1.5058741569519043,1.38863696289, 0.3064578125, 9.64384428711, -1.0, -1.02290076336, -0.564885496183
1.5068089962005615,1.38863696289, 0.3064578125, 9.64384428711, -1.0, -1.02290076336, -0.564885496183
1.5079920291900635,1.38863696289, 0.3064578125, 9.64384428711, -1.0, -1.02290076336, -0.564885496183
1.509282112121582,1.38863696289, 0.3064578125, 9.64384428711, -1.0, -1.02290076336, -0.564885496183
1.5105841159820557,1.38863696289, 0.3064578125, 9.64384428711, -1.0, -1.02290076336, -0.564885496183
1.512242078781128,1.38863696289, 0.3064578125, 9.64384428711, -1.0, -1.02290076336, -0.564885496183
1.5140211582183838,1.38863696289, 0.3064578125, 9.64384428711, -1.0, -1.02290076336, -0.564885496183
1.5158390998840332,1.38863696289, 0.3064578125, 9.64384428711, -1.0, -1.02290076336, -0.564885496183
1.5220081806182861,1.43173259277, 0.227449157715, 9.65581529541, -0.908396946565, -1.18320610687, -0.671755725191
1.5243690013885498,1.43173259277, 0.227449157715, 9.65581529541, -0.908396946565, -1.18320610687, -0.671755725191
1.5270609855651855,1.43173259277, 0.227449157715, 9.65581529541, -0.908396946565, -1.18320610687, -0.671755725191
1.5319290161132812,1.43173259277, 0.227449157715, 9.65581529541, -0.908396946565, -1.18320610687, -0.671755725191
1.533569097518921,1.43173259277, 0.227449157715, 9.65581529541, -0.908396946565, -1.18320610687, -0.671755725191
1.5352120399475098,1.43173259277, 0.227449157715, 9.65581529541, -0.908396946565, -1.18320610687, -0.671755725191
1.5378241539001465,1.43173259277, 0.227449157715, 9.65581529541, -0.908396946565, -1.18320610687, -0.671755725191
1.5393140316009521,1.43173259277, 0.227449157715, 9.65581529541, -0.908396946565, -1.18320610687, -0.671755725191
1.540762186050415,1.43173259277, 0.227449157715, 9.65581529541, -0.908396946565, -1.18320610687, -0.671755725191
1.5428171157836914,1.43173259277, 0.227449157715, 9.65581529541, -0.908396946565, -1.18320610687, -0.671755725191
1.5452470779418945,1.43173259277, 0.227449157715, 9.65581529541, -0.908396946565, -1.18320610687, -0.671755725191
1.54715895652771,1.43173259277, 0.227449157715, 9.65581529541, -0.908396946565, -1.18320610687, -0.671755725191
1.5489411354064941,1.43173259277, 0.227449157715, 9.65581529541, -0.908396946565, -1.18320610687, -0.671755725191
1.5511829853057861,1.43173259277, 0.227449157715, 9.65581529541, -0.908396946565, -1.18320610687, -0.671755725191
1.556631088256836,1.43173259277, 0.227449157715, 9.65581529541, -0.908396946565, -1.18320610687, -0.671755725191
1.559751033782959,1.43173259277, 0.227449157715, 9.65581529541, -0.908396946565, -1.18320610687, -0.671755725191
1.5644171237945557,1.43173259277, 0.227449157715, 9.65581529541, -0.908396946565, -1.18320610687, -0.671755725191
1.56679105758667,1.43173259277, 0.227449157715, 9.65581529541, -0.908396946565, -1.18320610687, -0.671755725191
1.5683469772338867,1.43173259277, 0.227449157715, 9.65581529541, -0.908396946565, -1.18320610687, -0.671755725191
1.5698630809783936,1.43173259277, 0.227449157715, 9.65581529541, -0.908396946565, -1.18320610687, -0.671755725191
1.5718669891357422,1.43173259277, 0.227449157715, 9.65581529541, -0.908396946565, -1.18320610687, -0.671755725191
1.5740101337432861,1.43173259277, 0.227449157715, 9.65581529541, -0.908396946565, -1.18320610687, -0.671755725191
1.5758099555969238,1.43173259277, 0.227449157715, 9.65581529541, -0.908396946565, -1.18320610687, -0.671755725191
1.5777990818023682,1.43173259277, 0.227449157715, 9.65581529541, -0.908396946565, -1.18320610687, -0.671755725191
1.5804100036621094,1.43173259277, 0.227449157715, 9.65581529541, -0.908396946565, -1.18320610687, -0.671755725191
1.5842649936676025,1.43173259277, 0.227449157715, 9.65581529541, -0.908396946565, -1.18320610687, -0.671755725191
1.5899341106414795,1.43173259277, 0.227449157715, 9.65581529541, -0.908396946565, -1.18320610687, -0.671755725191
1.6019160747528076,1.43173259277, 0.227449157715, 9.65581529541, -0.908396946565, -1.18320610687, -0.671755725191
1.6040639877319336,1.43173259277, 0.227449157715, 9.65581529541, -0.908396946565, -1.18320610687, -0.671755725191
1.605816125869751,1.43173259277, 0.227449157715, 9.65581529541, -0.908396946565, -1.18320610687, -0.671755725191
1.607680082321167,1.43173259277, 0.227449157715, 9.65581529541, -0.908396946565, -1.18320610687, -0.671755725191
1.6099870204925537,1.43173259277, 0.227449157715, 9.65581529541, -0.908396946565, -1.18320610687, -0.671755725191
1.614645004272461,1.43173259277, 0.227449157715, 9.65581529541, -0.908396946565, -1.18320610687, -0.671755725191
1.6172361373901367,1.43173259277, 0.227449157715, 9.65581529541, -0.908396946565, -1.18320610687, -0.671755725191
1.6241559982299805,1.37666595459, 0.330399829102, 9.54568201904, -0.923664122137, -1.16030534351, -0.496183206107
1.6294851303100586,1.37666595459, 0.330399829102, 9.54568201904, -0.923664122137, -1.16030534351, -0.496183206107
1.6315231323242188,1.37666595459, 0.330399829102, 9.54568201904, -0.923664122137, -1.16030534351, -0.496183206107
1.6343469619750977,1.37666595459, 0.330399829102, 9.54568201904, -0.923664122137, -1.16030534351, -0.496183206107
1.63572096824646,1.37666595459, 0.330399829102, 9.54568201904, -0.923664122137, -1.16030534351, -0.496183206107
1.6375269889831543,1.37666595459, 0.330399829102, 9.54568201904, -0.923664122137, -1.16030534351, -0.496183206107
1.6390321254730225,1.37666595459, 0.330399829102, 9.54568201904, -0.923664122137, -1.16030534351, -0.496183206107
1.6420481204986572,1.37666595459, 0.330399829102, 9.54568201904, -0.923664122137, -1.16030534351, -0.496183206107
1.6466610431671143,1.37666595459, 0.330399829102, 9.54568201904, -0.923664122137, -1.16030534351, -0.496183206107
1.649327039718628,1.37666595459, 0.330399829102, 9.54568201904, -0.923664122137, -1.16030534351, -0.496183206107
1.6515181064605713,1.37666595459, 0.330399829102, 9.54568201904, -0.923664122137, -1.16030534351, -0.496183206107
1.653203010559082,1.37666595459, 0.330399829102, 9.54568201904, -0.923664122137, -1.16030534351, -0.496183206107
1.6549360752105713,1.37666595459, 0.330399829102, 9.54568201904, -0.923664122137, -1.16030534351, -0.496183206107
1.6568150520324707,1.37666595459, 0.330399829102, 9.54568201904, -0.923664122137, -1.16030534351, -0.496183206107
1.658555030822754,1.37666595459, 0.330399829102, 9.54568201904, -0.923664122137, -1.16030534351, -0.496183206107
1.6602461338043213,1.37666595459, 0.330399829102, 9.54568201904, -0.923664122137, -1.16030534351, -0.496183206107
1.6620831489562988,1.37666595459, 0.330399829102, 9.54568201904, -0.923664122137, -1.16030534351, -0.496183206107
1.66367506980896,1.37666595459, 0.330399829102, 9.54568201904, -0.923664122137, -1.16030534351, -0.496183206107
1.6651320457458496,1.37666595459, 0.330399829102, 9.54568201904, -0.923664122137, -1.16030534351, -0.496183206107
1.6666460037231445,1.37666595459, 0.330399829102, 9.54568201904, -0.923664122137, -1.16030534351, -0.496183206107
1.6686151027679443,1.37666595459, 0.330399829102, 9.54568201904, -0.923664122137, -1.16030534351, -0.496183206107
1.6705801486968994,1.37666595459, 0.330399829102, 9.54568201904, -0.923664122137, -1.16030534351, -0.496183206107
1.6744539737701416,1.37666595459, 0.330399829102, 9.54568201904, -0.923664122137, -1.16030534351, -0.496183206107
1.677800178527832,1.37666595459, 0.330399829102, 9.54568201904, -0.923664122137, -1.16030534351, -0.496183206107
1.6807901859283447,1.37666595459, 0.330399829102, 9.54568201904, -0.923664122137, -1.16030534351, -0.496183206107
1.682582139968872,1.37666595459, 0.330399829102, 9.54568201904, -0.923664122137, -1.16030534351, -0.496183206107
1.6841180324554443,1.37666595459, 0.330399829102, 9.54568201904, -0.923664122137, -1.16030534351, -0.496183206107
1.6858220100402832,1.37666595459, 0.330399829102, 9.54568201904, -0.923664122137, -1.16030534351, -0.496183206107
1.6874980926513672,1.37666595459, 0.330399829102, 9.54568201904, -0.923664122137, -1.16030534351, -0.496183206107
1.6891000270843506,1.37666595459, 0.330399829102, 9.54568201904, -0.923664122137, -1.16030534351, -0.496183206107
1.690613031387329,1.37666595459, 0.330399829102, 9.54568201904, -0.923664122137, -1.16030534351, -0.496183206107
1.6922531127929688,1.37666595459, 0.330399829102, 9.54568201904, -0.923664122137, -1.16030534351, -0.496183206107
1.6941111087799072,1.37666595459, 0.330399829102, 9.54568201904, -0.923664122137, -1.16030534351, -0.496183206107
1.6957480907440186,1.37666595459, 0.330399829102, 9.54568201904, -0.923664122137, -1.16030534351, -0.496183206107
1.6977851390838623,1.37666595459, 0.330399829102, 9.54568201904, -0.923664122137, -1.16030534351, -0.496183206107
1.7034990787506104,1.37666595459, 0.330399829102, 9.54568201904, -0.923664122137, -1.16030534351, -0.496183206107
1.7076849937438965,1.37666595459, 0.330399829102, 9.54568201904, -0.923664122137, -1.16030534351, -0.496183206107
1.71311616897583,1.37666595459, 0.330399829102, 9.54568201904, -0.923664122137, -1.16030534351, -0.496183206107
1.71592116355896,1.37666595459, 0.330399829102, 9.54568201904, -0.923664122137, -1.16030534351, -0.496183206107
1.7219750881195068,1.37187755127, 0.287304199219, 9.60074865723, -0.954198473282, -1.10687022901, -0.465648854962
1.7247271537780762,1.37187755127, 0.287304199219, 9.60074865723, -0.954198473282, -1.10687022901, -0.465648854962
1.7268340587615967,1.37187755127, 0.287304199219, 9.60074865723, -0.954198473282, -1.10687022901, -0.465648854962
1.7287859916687012,1.37187755127, 0.287304199219, 9.60074865723, -0.954198473282, -1.10687022901, -0.465648854962
1.7312021255493164,1.37187755127, 0.287304199219, 9.60074865723, -0.954198473282, -1.10687022901, -0.465648854962
1.7332510948181152,1.37187755127, 0.287304199219, 9.60074865723, -0.954198473282, -1.10687022901, -0.465648854962
1.7403841018676758,1.37187755127, 0.287304199219, 9.60074865723, -0.954198473282, -1.10687022901, -0.465648854962
1.7442879676818848,1.37187755127, 0.287304199219, 9.60074865723, -0.954198473282, -1.10687022901, -0.465648854962
1.7463910579681396,1.37187755127, 0.287304199219, 9.60074865723, -0.954198473282, -1.10687022901, -0.465648854962
1.7480230331420898,1.37187755127, 0.287304199219, 9.60074865723, -0.954198473282, -1.10687022901, -0.465648854962
1.7499730587005615,1.37187755127, 0.287304199219, 9.60074865723, -0.954198473282, -1.10687022901, -0.465648854962
1.7517621517181396,1.37187755127, 0.287304199219, 9.60074865723, -0.954198473282, -1.10687022901, -0.465648854962
1.752974033355713,1.37187755127, 0.287304199219, 9.60074865723, -0.954198473282, -1.10687022901, -0.465648854962
1.754127025604248,1.37187755127, 0.287304199219, 9.60074865723, -0.954198473282, -1.10687022901, -0.465648854962
1.75514817237854,1.37187755127, 0.287304199219, 9.60074865723, -0.954198473282, -1.10687022901, -0.465648854962
1.7563741207122803,1.37187755127, 0.287304199219, 9.60074865723, -0.954198473282, -1.10687022901, -0.465648854962
1.7580301761627197,1.37187755127, 0.287304199219, 9.60074865723, -0.954198473282, -1.10687022901, -0.465648854962
1.7598390579223633,1.37187755127, 0.287304199219, 9.60074865723, -0.954198473282, -1.10687022901, -0.465648854962
1.7645201683044434,1.37187755127, 0.287304199219, 9.60074865723, -0.954198473282, -1.10687022901, -0.465648854962
1.7673990726470947,1.37187755127, 0.287304199219, 9.60074865723, -0.954198473282, -1.10687022901, -0.465648854962
1.7701380252838135,1.37187755127, 0.287304199219, 9.60074865723, -0.954198473282, -1.10687022901, -0.465648854962
1.7717790603637695,1.37187755127, 0.287304199219, 9.60074865723, -0.954198473282, -1.10687022901, -0.465648854962
1.7733550071716309,1.37187755127, 0.287304199219, 9.60074865723, -0.954198473282, -1.10687022901, -0.465648854962
1.7751760482788086,1.37187755127, 0.287304199219, 9.60074865723, -0.954198473282, -1.10687022901, -0.465648854962
1.7771010398864746,1.37187755127, 0.287304199219, 9.60074865723, -0.954198473282, -1.10687022901, -0.465648854962
1.7790861129760742,1.37187755127, 0.287304199219, 9.60074865723, -0.954198473282, -1.10687022901, -0.465648854962
1.780670166015625,1.37187755127, 0.287304199219, 9.60074865723, -0.954198473282, -1.10687022901, -0.465648854962
1.782371997833252,1.37187755127, 0.287304199219, 9.60074865723, -0.954198473282, -1.10687022901, -0.465648854962
1.783912181854248,1.37187755127, 0.287304199219, 9.60074865723, -0.954198473282, -1.10687022901, -0.465648854962
1.785762071609497,1.37187755127, 0.287304199219, 9.60074865723, -0.954198473282, -1.10687022901, -0.465648854962
1.7872099876403809,1.37187755127, 0.287304199219, 9.60074865723, -0.954198473282, -1.10687022901, -0.465648854962
1.78851318359375,1.37187755127, 0.287304199219, 9.60074865723, -0.954198473282, -1.10687022901, -0.465648854962
1.7909681797027588,1.37187755127, 0.287304199219, 9.60074865723, -0.954198473282, -1.10687022901, -0.465648854962
1.7952311038970947,1.37187755127, 0.287304199219, 9.60074865723, -0.954198473282, -1.10687022901, -0.465648854962
1.8024091720581055,1.37187755127, 0.287304199219, 9.60074865723, -0.954198473282, -1.10687022901, -0.465648854962
1.8043010234832764,1.37187755127, 0.287304199219, 9.60074865723, -0.954198473282, -1.10687022901, -0.465648854962
1.8057830333709717,1.37187755127, 0.287304199219, 9.60074865723, -0.954198473282, -1.10687022901, -0.465648854962
1.8076350688934326,1.37187755127, 0.287304199219, 9.60074865723, -0.954198473282, -1.10687022901, -0.465648854962
1.8101229667663574,1.37187755127, 0.287304199219, 9.60074865723, -0.954198473282, -1.10687022901, -0.465648854962
1.8126599788665771,1.37187755127, 0.287304199219, 9.60074865723, -0.954198473282, -1.10687022901, -0.465648854962
1.8148009777069092,1.37187755127, 0.287304199219, 9.60074865723, -0.954198473282, -1.10687022901, -0.465648854962
1.818006992340088,1.37187755127, 0.287304199219, 9.60074865723, -0.954198473282, -1.10687022901, -0.465648854962
1.8197290897369385,1.37187755127, 0.287304199219, 9.60074865723, -0.954198473282, -1.10687022901, -0.465648854962
1.8340201377868652,1.39581956787, 0.275333190918, 9.64384428711, -0.916030534351, -1.14503816794, -0.519083969466
1.8375270366668701,1.39581956787, 0.275333190918, 9.64384428711, -0.916030534351, -1.14503816794, -0.519083969466
1.8392040729522705,1.39581956787, 0.275333190918, 9.64384428711, -0.916030534351, -1.14503816794, -0.519083969466
1.8411149978637695,1.39581956787, 0.275333190918, 9.64384428711, -0.916030534351, -1.14503816794, -0.519083969466
1.8427541255950928,1.39581956787, 0.275333190918, 9.64384428711, -0.916030534351, -1.14503816794, -0.519083969466
1.8444280624389648,1.39581956787, 0.275333190918, 9.64384428711, -0.916030534351, -1.14503816794, -0.519083969466
1.846191167831421,1.39581956787, 0.275333190918, 9.64384428711, -0.916030534351, -1.14503816794, -0.519083969466
1.8477230072021484,1.39581956787, 0.275333190918, 9.64384428711, -0.916030534351, -1.14503816794, -0.519083969466
1.8492159843444824,1.39581956787, 0.275333190918, 9.64384428711, -0.916030534351, -1.14503816794, -0.519083969466
1.850538969039917,1.39581956787, 0.275333190918, 9.64384428711, -0.916030534351, -1.14503816794, -0.519083969466
1.8526110649108887,1.39581956787, 0.275333190918, 9.64384428711, -0.916030534351, -1.14503816794, -0.519083969466
1.8543100357055664,1.39581956787, 0.275333190918, 9.64384428711, -0.916030534351, -1.14503816794, -0.519083969466
1.8566360473632812,1.39581956787, 0.275333190918, 9.64384428711, -0.916030534351, -1.14503816794, -0.519083969466
1.8590691089630127,1.39581956787, 0.275333190918, 9.64384428711, -0.916030534351, -1.14503816794, -0.519083969466
1.863914966583252,1.39581956787, 0.275333190918, 9.64384428711, -0.916030534351, -1.14503816794, -0.519083969466
1.867159128189087,1.39581956787, 0.275333190918, 9.64384428711, -0.916030534351, -1.14503816794, -0.519083969466
1.8703761100769043,1.39581956787, 0.275333190918, 9.64384428711, -0.916030534351, -1.14503816794, -0.519083969466
1.872178077697754,1.39581956787, 0.275333190918, 9.64384428711, -0.916030534351, -1.14503816794, -0.519083969466
1.8742260932922363,1.39581956787, 0.275333190918, 9.64384428711, -0.916030534351, -1.14503816794, -0.519083969466
1.8760130405426025,1.39581956787, 0.275333190918, 9.64384428711, -0.916030534351, -1.14503816794, -0.519083969466
1.877514123916626,1.39581956787, 0.275333190918, 9.64384428711, -0.916030534351, -1.14503816794, -0.519083969466
1.8786051273345947,1.39581956787, 0.275333190918, 9.64384428711, -0.916030534351, -1.14503816794, -0.519083969466
1.8796641826629639,1.39581956787, 0.275333190918, 9.64384428711, -0.916030534351, -1.14503816794, -0.519083969466
1.881303071975708,1.39581956787, 0.275333190918, 9.64384428711, -0.916030534351, -1.14503816794, -0.519083969466
1.8827431201934814,1.39581956787, 0.275333190918, 9.64384428711, -0.916030534351, -1.14503816794, -0.519083969466
1.8837721347808838,1.39581956787, 0.275333190918, 9.64384428711, -0.916030534351, -1.14503816794, -0.519083969466
1.885451078414917,1.39581956787, 0.275333190918, 9.64384428711, -0.916030534351, -1.14503816794, -0.519083969466
1.887434959411621,1.39581956787, 0.275333190918, 9.64384428711, -0.916030534351, -1.14503816794, -0.519083969466
1.891113042831421,1.39581956787, 0.275333190918, 9.64384428711, -0.916030534351, -1.14503816794, -0.519083969466
1.8938241004943848,1.39581956787, 0.275333190918, 9.64384428711, -0.916030534351, -1.14503816794, -0.519083969466
1.8961801528930664,1.39581956787, 0.275333190918, 9.64384428711, -0.916030534351, -1.14503816794, -0.519083969466
1.8977479934692383,1.39581956787, 0.275333190918, 9.64384428711, -0.916030534351, -1.14503816794, -0.519083969466
1.903182029724121,1.39581956787, 0.275333190918, 9.64384428711, -0.916030534351, -1.14503816794, -0.519083969466
1.9048471450805664,1.39581956787, 0.275333190918, 9.64384428711, -0.916030534351, -1.14503816794, -0.519083969466
1.9064080715179443,1.39581956787, 0.275333190918, 9.64384428711, -0.916030534351, -1.14503816794, -0.519083969466
1.9090571403503418,1.39581956787, 0.275333190918, 9.64384428711, -0.916030534351, -1.14503816794, -0.519083969466
1.9117271900177002,1.39581956787, 0.275333190918, 9.64384428711, -0.916030534351, -1.14503816794, -0.519083969466
1.9141061305999756,1.39581956787, 0.275333190918, 9.64384428711, -0.916030534351, -1.14503816794, -0.519083969466
1.917513132095337,1.39581956787, 0.275333190918, 9.64384428711, -0.916030534351, -1.14503816794, -0.519083969466
1.919558048248291,1.39581956787, 0.275333190918, 9.64384428711, -0.916030534351, -1.14503816794, -0.519083969466
1.933199167251587,1.39581956787, 0.275333190918, 9.64384428711, -0.916030534351, -1.14503816794, -0.519083969466
1.9349651336669922,1.39581956787, 0.275333190918, 9.64384428711, -0.916030534351, -1.14503816794, -0.519083969466
1.9367480278015137,1.39581956787, 0.275333190918, 9.64384428711, -0.916030534351, -1.14503816794, -0.519083969466
1.9423301219940186,1.38863696289, 0.284909997559, 9.62469067383, -0.87786259542, -1.24427480916, -0.412213740458
1.9443621635437012,1.38863696289, 0.284909997559, 9.62469067383, -0.87786259542, -1.24427480916, -0.412213740458
1.946242094039917,1.38863696289, 0.284909997559, 9.62469067383, -0.87786259542, -1.24427480916, -0.412213740458
1.9485340118408203,1.38863696289, 0.284909997559, 9.62469067383, -0.87786259542, -1.24427480916, -0.412213740458
1.9509930610656738,1.38863696289, 0.284909997559, 9.62469067383, -0.87786259542, -1.24427480916, -0.412213740458
1.955038070678711,1.38863696289, 0.284909997559, 9.62469067383, -0.87786259542, -1.24427480916, -0.412213740458
1.957813024520874,1.38863696289, 0.284909997559, 9.62469067383, -0.87786259542, -1.24427480916, -0.412213740458
1.9611930847167969,1.38863696289, 0.284909997559, 9.62469067383, -0.87786259542, -1.24427480916, -0.412213740458
1.9639110565185547,1.38863696289, 0.284909997559, 9.62469067383, -0.87786259542, -1.24427480916, -0.412213740458
1.9654431343078613,1.38863696289, 0.284909997559, 9.62469067383, -0.87786259542, -1.24427480916, -0.412213740458
1.9678940773010254,1.38863696289, 0.284909997559, 9.62469067383, -0.87786259542, -1.24427480916, -0.412213740458
1.969552993774414,1.38863696289, 0.284909997559, 9.62469067383, -0.87786259542, -1.24427480916, -0.412213740458
1.971647024154663,1.38863696289, 0.284909997559, 9.62469067383, -0.87786259542, -1.24427480916, -0.412213740458
1.9736270904541016,1.38863696289, 0.284909997559, 9.62469067383, -0.87786259542, -1.24427480916, -0.412213740458
1.9760479927062988,1.38863696289, 0.284909997559, 9.62469067383, -0.87786259542, -1.24427480916, -0.412213740458
1.9782130718231201,1.38863696289, 0.284909997559, 9.62469067383, -0.87786259542, -1.24427480916, -0.412213740458
1.9812500476837158,1.38863696289, 0.284909997559, 9.62469067383, -0.87786259542, -1.24427480916, -0.412213740458
1.9856879711151123,1.38863696289, 0.284909997559, 9.62469067383, -0.87786259542, -1.24427480916, -0.412213740458
1.988556146621704,1.38863696289, 0.284909997559, 9.62469067383, -0.87786259542, -1.24427480916, -0.412213740458
1.9913840293884277,1.38863696289, 0.284909997559, 9.62469067383, -0.87786259542, -1.24427480916, -0.412213740458
1.9970791339874268,1.38863696289, 0.284909997559, 9.62469067383, -0.87786259542, -1.24427480916, -0.412213740458
1.9988031387329102,1.38863696289, 0.284909997559, 9.62469067383, -0.87786259542, -1.24427480916, -0.412213740458
2.0010621547698975,1.38863696289, 0.284909997559, 9.62469067383, -0.87786259542, -1.24427480916, -0.412213740458
2.002664089202881,1.38863696289, 0.284909997559, 9.62469067383, -0.87786259542, -1.24427480916, -0.412213740458
2.004716157913208,1.38863696289, 0.284909997559, 9.62469067383, -0.87786259542, -1.24427480916, -0.412213740458
2.006355047225952,1.38863696289, 0.284909997559, 9.62469067383, -0.87786259542, -1.24427480916, -0.412213740458
2.0086829662323,1.38863696289, 0.284909997559, 9.62469067383, -0.87786259542, -1.24427480916, -0.412213740458
2.0144951343536377,1.38863696289, 0.284909997559, 9.62469067383, -0.87786259542, -1.24427480916, -0.412213740458
2.023390054702759,1.44130939941, 0.186747729492, 9.51934580078, -0.870229007634, -1.18320610687, -0.511450381679
2.025521993637085,1.44130939941, 0.186747729492, 9.51934580078, -0.870229007634, -1.18320610687, -0.511450381679
2.03075909614563,1.44130939941, 0.186747729492, 9.51934580078, -0.870229007634, -1.18320610687, -0.511450381679
2.0327110290527344,1.44130939941, 0.186747729492, 9.51934580078, -0.870229007634, -1.18320610687, -0.511450381679
2.0343141555786133,1.44130939941, 0.186747729492, 9.51934580078, -0.870229007634, -1.18320610687, -0.511450381679
2.036107063293457,1.44130939941, 0.186747729492, 9.51934580078, -0.870229007634, -1.18320610687, -0.511450381679
2.037899971008301,1.44130939941, 0.186747729492, 9.51934580078, -0.870229007634, -1.18320610687, -0.511450381679
2.039821147918701,1.44130939941, 0.186747729492, 9.51934580078, -0.870229007634, -1.18320610687, -0.511450381679
2.042239189147949,1.44130939941, 0.186747729492, 9.51934580078, -0.870229007634, -1.18320610687, -0.511450381679
2.045314073562622,1.44130939941, 0.186747729492, 9.51934580078, -0.870229007634, -1.18320610687, -0.511450381679
2.0496301651000977,1.44130939941, 0.186747729492, 9.51934580078, -0.870229007634, -1.18320610687, -0.511450381679
2.053377151489258,1.44130939941, 0.186747729492, 9.51934580078, -0.870229007634, -1.18320610687, -0.511450381679
2.0559420585632324,1.44130939941, 0.186747729492, 9.51934580078, -0.870229007634, -1.18320610687, -0.511450381679
2.0583901405334473,1.44130939941, 0.186747729492, 9.51934580078, -0.870229007634, -1.18320610687, -0.511450381679
2.060218095779419,1.44130939941, 0.186747729492, 9.51934580078, -0.870229007634, -1.18320610687, -0.511450381679
2.0622000694274902,1.44130939941, 0.186747729492, 9.51934580078, -0.870229007634, -1.18320610687, -0.511450381679
2.0640721321105957,1.44130939941, 0.186747729492, 9.51934580078, -0.870229007634, -1.18320610687, -0.511450381679
2.0664119720458984,1.44130939941, 0.186747729492, 9.51934580078, -0.870229007634, -1.18320610687, -0.511450381679
2.0688490867614746,1.44130939941, 0.186747729492, 9.51934580078, -0.870229007634, -1.18320610687, -0.511450381679
2.0716631412506104,1.44130939941, 0.186747729492, 9.51934580078, -0.870229007634, -1.18320610687, -0.511450381679
2.076876163482666,1.44130939941, 0.186747729492, 9.51934580078, -0.870229007634, -1.18320610687, -0.511450381679
2.0799741744995117,1.44130939941, 0.186747729492, 9.51934580078, -0.870229007634, -1.18320610687, -0.511450381679
2.0826210975646973,1.44130939941, 0.186747729492, 9.51934580078, -0.870229007634, -1.18320610687, -0.511450381679
2.0843381881713867,1.44130939941, 0.186747729492, 9.51934580078, -0.870229007634, -1.18320610687, -0.511450381679
2.0860440731048584,1.44130939941, 0.186747729492, 9.51934580078, -0.870229007634, -1.18320610687, -0.511450381679
2.087700128555298,1.44130939941, 0.186747729492, 9.51934580078, -0.870229007634, -1.18320610687, -0.511450381679
2.089243173599243,1.44130939941, 0.186747729492, 9.51934580078, -0.870229007634, -1.18320610687, -0.511450381679
2.090999126434326,1.44130939941, 0.186747729492, 9.51934580078, -0.870229007634, -1.18320610687, -0.511450381679
2.092724084854126,1.44130939941, 0.186747729492, 9.51934580078, -0.870229007634, -1.18320610687, -0.511450381679
2.099513053894043,1.44130939941, 0.186747729492, 9.51934580078, -0.870229007634, -1.18320610687, -0.511450381679
2.1020710468292236,1.44130939941, 0.186747729492, 9.51934580078, -0.870229007634, -1.18320610687, -0.511450381679
2.104635000228882,1.44130939941, 0.186747729492, 9.51934580078, -0.870229007634, -1.18320610687, -0.511450381679
2.10801100730896,1.44130939941, 0.186747729492, 9.51934580078, -0.870229007634, -1.18320610687, -0.511450381679
2.111441135406494,1.44130939941, 0.186747729492, 9.51934580078, -0.870229007634, -1.18320610687, -0.511450381679
2.1145951747894287,1.44130939941, 0.186747729492, 9.51934580078, -0.870229007634, -1.18320610687, -0.511450381679
2.117772102355957,1.44130939941, 0.186747729492, 9.51934580078, -0.870229007634, -1.18320610687, -0.511450381679
2.1293439865112305,1.38624276123, 0.335188232422, 9.56244143066, -0.992366412214, -1.40458015267, -0.534351145038
2.131361961364746,1.38624276123, 0.335188232422, 9.56244143066, -0.992366412214, -1.40458015267, -0.534351145038
2.1325809955596924,1.38624276123, 0.335188232422, 9.56244143066, -0.992366412214, -1.40458015267, -0.534351145038
2.13364315032959,1.38624276123, 0.335188232422, 9.56244143066, -0.992366412214, -1.40458015267, -0.534351145038
2.1347010135650635,1.38624276123, 0.335188232422, 9.56244143066, -0.992366412214, -1.40458015267, -0.534351145038
2.135759115219116,1.38624276123, 0.335188232422, 9.56244143066, -0.992366412214, -1.40458015267, -0.534351145038
2.1372170448303223,1.38624276123, 0.335188232422, 9.56244143066, -0.992366412214, -1.40458015267, -0.534351145038
2.1388251781463623,1.38624276123, 0.335188232422, 9.56244143066, -0.992366412214, -1.40458015267, -0.534351145038
2.1406960487365723,1.38624276123, 0.335188232422, 9.56244143066, -0.992366412214, -1.40458015267, -0.534351145038
2.1442840099334717,1.38624276123, 0.335188232422, 9.56244143066, -0.992366412214, -1.40458015267, -0.534351145038
2.147274971008301,1.38624276123, 0.335188232422, 9.56244143066, -0.992366412214, -1.40458015267, -0.534351145038
2.1495590209960938,1.38624276123, 0.335188232422, 9.56244143066, -0.992366412214, -1.40458015267, -0.534351145038
2.1524031162261963,1.38624276123, 0.335188232422, 9.56244143066, -0.992366412214, -1.40458015267, -0.534351145038
2.154287099838257,1.38624276123, 0.335188232422, 9.56244143066, -0.992366412214, -1.40458015267, -0.534351145038
2.1555521488189697,1.38624276123, 0.335188232422, 9.56244143066, -0.992366412214, -1.40458015267, -0.534351145038
2.157215118408203,1.38624276123, 0.335188232422, 9.56244143066, -0.992366412214, -1.40458015267, -0.534351145038
2.158884048461914,1.38624276123, 0.335188232422, 9.56244143066, -0.992366412214, -1.40458015267, -0.534351145038
2.1604230403900146,1.38624276123, 0.335188232422, 9.56244143066, -0.992366412214, -1.40458015267, -0.534351145038
2.1618661880493164,1.38624276123, 0.335188232422, 9.56244143066, -0.992366412214, -1.40458015267, -0.534351145038
2.163290023803711,1.38624276123, 0.335188232422, 9.56244143066, -0.992366412214, -1.40458015267, -0.534351145038
2.165217161178589,1.38624276123, 0.335188232422, 9.56244143066, -0.992366412214, -1.40458015267, -0.534351145038
2.168776035308838,1.38624276123, 0.335188232422, 9.56244143066, -0.992366412214, -1.40458015267, -0.534351145038
2.171488046646118,1.38624276123, 0.335188232422, 9.56244143066, -0.992366412214, -1.40458015267, -0.534351145038
2.1740541458129883,1.38624276123, 0.335188232422, 9.56244143066, -0.992366412214, -1.40458015267, -0.534351145038
2.1759791374206543,1.38624276123, 0.335188232422, 9.56244143066, -0.992366412214, -1.40458015267, -0.534351145038
2.177572011947632,1.38624276123, 0.335188232422, 9.56244143066, -0.992366412214, -1.40458015267, -0.534351145038
2.178929090499878,1.38624276123, 0.335188232422, 9.56244143066, -0.992366412214, -1.40458015267, -0.534351145038
2.180338144302368,1.38624276123, 0.335188232422, 9.56244143066, -0.992366412214, -1.40458015267, -0.534351145038
2.1819000244140625,1.38624276123, 0.335188232422, 9.56244143066, -0.992366412214, -1.40458015267, -0.534351145038
2.1834211349487305,1.38624276123, 0.335188232422, 9.56244143066, -0.992366412214, -1.40458015267, -0.534351145038
2.1847400665283203,1.38624276123, 0.335188232422, 9.56244143066, -0.992366412214, -1.40458015267, -0.534351145038
2.1861090660095215,1.38624276123, 0.335188232422, 9.56244143066, -0.992366412214, -1.40458015267, -0.534351145038
2.187885046005249,1.38624276123, 0.335188232422, 9.56244143066, -0.992366412214, -1.40458015267, -0.534351145038
2.1891870498657227,1.38624276123, 0.335188232422, 9.56244143066, -0.992366412214, -1.40458015267, -0.534351145038
2.190664052963257,1.38624276123, 0.335188232422, 9.56244143066, -0.992366412214, -1.40458015267, -0.534351145038
2.19238018989563,1.38624276123, 0.335188232422, 9.56244143066, -0.992366412214, -1.40458015267, -0.534351145038
2.199655055999756,1.38624276123, 0.335188232422, 9.56244143066, -0.992366412214, -1.40458015267, -0.534351145038
2.2034270763397217,1.38624276123, 0.335188232422, 9.56244143066, -0.992366412214, -1.40458015267, -0.534351145038
2.2061519622802734,1.38624276123, 0.335188232422, 9.56244143066, -0.992366412214, -1.40458015267, -0.534351145038
2.2080459594726562,1.38624276123, 0.335188232422, 9.56244143066, -0.992366412214, -1.40458015267, -0.534351145038
2.209656000137329,1.38624276123, 0.335188232422, 9.56244143066, -0.992366412214, -1.40458015267, -0.534351145038
2.211688995361328,1.38624276123, 0.335188232422, 9.56244143066, -0.992366412214, -1.40458015267, -0.534351145038
2.2131850719451904,1.38624276123, 0.335188232422, 9.56244143066, -0.992366412214, -1.40458015267, -0.534351145038
2.2155890464782715,1.38624276123, 0.335188232422, 9.56244143066, -0.992366412214, -1.40458015267, -0.534351145038
2.2213051319122314,1.39103116455, 0.165199914551, 9.65102689209, -0.946564885496, -1.08396946565, -0.427480916031
2.2273430824279785,1.39103116455, 0.165199914551, 9.65102689209, -0.946564885496, -1.08396946565, -0.427480916031
2.229254961013794,1.39103116455, 0.165199914551, 9.65102689209, -0.946564885496, -1.08396946565, -0.427480916031
2.2316830158233643,1.39103116455, 0.165199914551, 9.65102689209, -0.946564885496, -1.08396946565, -0.427480916031
2.23386812210083,1.39103116455, 0.165199914551, 9.65102689209, -0.946564885496, -1.08396946565, -0.427480916031
2.236572027206421,1.39103116455, 0.165199914551, 9.65102689209, -0.946564885496, -1.08396946565, -0.427480916031
2.2411131858825684,1.39103116455, 0.165199914551, 9.65102689209, -0.946564885496, -1.08396946565, -0.427480916031
2.2441930770874023,1.39103116455, 0.165199914551, 9.65102689209, -0.946564885496, -1.08396946565, -0.427480916031
2.2471201419830322,1.39103116455, 0.165199914551, 9.65102689209, -0.946564885496, -1.08396946565, -0.427480916031
2.2496249675750732,1.39103116455, 0.165199914551, 9.65102689209, -0.946564885496, -1.08396946565, -0.427480916031
2.251939058303833,1.39103116455, 0.165199914551, 9.65102689209, -0.946564885496, -1.08396946565, -0.427480916031
2.2540831565856934,1.39103116455, 0.165199914551, 9.65102689209, -0.946564885496, -1.08396946565, -0.427480916031
2.2566370964050293,1.39103116455, 0.165199914551, 9.65102689209, -0.946564885496, -1.08396946565, -0.427480916031
2.260343074798584,1.39103116455, 0.165199914551, 9.65102689209, -0.946564885496, -1.08396946565, -0.427480916031
2.2640960216522217,1.39103116455, 0.165199914551, 9.65102689209, -0.946564885496, -1.08396946565, -0.427480916031
2.2675089836120605,1.39103116455, 0.165199914551, 9.65102689209, -0.946564885496, -1.08396946565, -0.427480916031
2.2702951431274414,1.39103116455, 0.165199914551, 9.65102689209, -0.946564885496, -1.08396946565, -0.427480916031
2.2722771167755127,1.39103116455, 0.165199914551, 9.65102689209, -0.946564885496, -1.08396946565, -0.427480916031
2.2744181156158447,1.39103116455, 0.165199914551, 9.65102689209, -0.946564885496, -1.08396946565, -0.427480916031
2.276309013366699,1.39103116455, 0.165199914551, 9.65102689209, -0.946564885496, -1.08396946565, -0.427480916031
2.27822208404541,1.39103116455, 0.165199914551, 9.65102689209, -0.946564885496, -1.08396946565, -0.427480916031
2.2802960872650146,1.39103116455, 0.165199914551, 9.65102689209, -0.946564885496, -1.08396946565, -0.427480916031
2.283529043197632,1.39103116455, 0.165199914551, 9.65102689209, -0.946564885496, -1.08396946565, -0.427480916031
2.286058187484741,1.39103116455, 0.165199914551, 9.65102689209, -0.946564885496, -1.08396946565, -0.427480916031
2.2883431911468506,1.39103116455, 0.165199914551, 9.65102689209, -0.946564885496, -1.08396946565, -0.427480916031
2.2914199829101562,1.39103116455, 0.165199914551, 9.65102689209, -0.946564885496, -1.08396946565, -0.427480916031
2.295340061187744,1.39103116455, 0.165199914551, 9.65102689209, -0.946564885496, -1.08396946565, -0.427480916031
2.299065113067627,1.39103116455, 0.165199914551, 9.65102689209, -0.946564885496, -1.08396946565, -0.427480916031
2.305246114730835,1.39103116455, 0.165199914551, 9.65102689209, -0.946564885496, -1.08396946565, -0.427480916031
2.3070180416107178,1.39103116455, 0.165199914551, 9.65102689209, -0.946564885496, -1.08396946565, -0.427480916031
2.3089451789855957,1.39103116455, 0.165199914551, 9.65102689209, -0.946564885496, -1.08396946565, -0.427480916031
2.3110570907592773,1.39103116455, 0.165199914551, 9.65102689209, -0.946564885496, -1.08396946565, -0.427480916031
2.3131980895996094,1.39103116455, 0.165199914551, 9.65102689209, -0.946564885496, -1.08396946565, -0.427480916031
2.3160719871520996,1.39103116455, 0.165199914551, 9.65102689209, -0.946564885496, -1.08396946565, -0.427480916031
2.3222100734710693,1.50116444092, 0.256179577637, 9.61511386719, -0.969465648855, -1.10687022901, -0.595419847328
2.3304691314697266,1.50116444092, 0.256179577637, 9.61511386719, -0.969465648855, -1.10687022901, -0.595419847328
2.332751989364624,1.50116444092, 0.256179577637, 9.61511386719, -0.969465648855, -1.10687022901, -0.595419847328
2.3341290950775146,1.50116444092, 0.256179577637, 9.61511386719, -0.969465648855, -1.10687022901, -0.595419847328
2.335416078567505,1.50116444092, 0.256179577637, 9.61511386719, -0.969465648855, -1.10687022901, -0.595419847328
2.336719036102295,1.50116444092, 0.256179577637, 9.61511386719, -0.969465648855, -1.10687022901, -0.595419847328
2.338759183883667,1.50116444092, 0.256179577637, 9.61511386719, -0.969465648855, -1.10687022901, -0.595419847328
2.3404760360717773,1.50116444092, 0.256179577637, 9.61511386719, -0.969465648855, -1.10687022901, -0.595419847328
2.3419041633605957,1.50116444092, 0.256179577637, 9.61511386719, -0.969465648855, -1.10687022901, -0.595419847328
2.3431921005249023,1.50116444092, 0.256179577637, 9.61511386719, -0.969465648855, -1.10687022901, -0.595419847328
2.345062017440796,1.50116444092, 0.256179577637, 9.61511386719, -0.969465648855, -1.10687022901, -0.595419847328
2.346351146697998,1.50116444092, 0.256179577637, 9.61511386719, -0.969465648855, -1.10687022901, -0.595419847328
2.347815990447998,1.50116444092, 0.256179577637, 9.61511386719, -0.969465648855, -1.10687022901, -0.595419847328
2.350180149078369,1.50116444092, 0.256179577637, 9.61511386719, -0.969465648855, -1.10687022901, -0.595419847328
2.352288007736206,1.50116444092, 0.256179577637, 9.61511386719, -0.969465648855, -1.10687022901, -0.595419847328
2.355571985244751,1.50116444092, 0.256179577637, 9.61511386719, -0.969465648855, -1.10687022901, -0.595419847328
2.359377145767212,1.50116444092, 0.256179577637, 9.61511386719, -0.969465648855, -1.10687022901, -0.595419847328
2.361992120742798,1.50116444092, 0.256179577637, 9.61511386719, -0.969465648855, -1.10687022901, -0.595419847328
2.3647069931030273,1.50116444092, 0.256179577637, 9.61511386719, -0.969465648855, -1.10687022901, -0.595419847328
2.366589069366455,1.50116444092, 0.256179577637, 9.61511386719, -0.969465648855, -1.10687022901, -0.595419847328
2.368720054626465,1.50116444092, 0.256179577637, 9.61511386719, -0.969465648855, -1.10687022901, -0.595419847328
2.3705191612243652,1.50116444092, 0.256179577637, 9.61511386719, -0.969465648855, -1.10687022901, -0.595419847328
2.372792959213257,1.50116444092, 0.256179577637, 9.61511386719, -0.969465648855, -1.10687022901, -0.595419847328
2.3749911785125732,1.50116444092, 0.256179577637, 9.61511386719, -0.969465648855, -1.10687022901, -0.595419847328
2.3769161701202393,1.50116444092, 0.256179577637, 9.61511386719, -0.969465648855, -1.10687022901, -0.595419847328
2.379002094268799,1.50116444092, 0.256179577637, 9.61511386719, -0.969465648855, -1.10687022901, -0.595419847328
2.3817691802978516,1.50116444092, 0.256179577637, 9.61511386719, -0.969465648855, -1.10687022901, -0.595419847328
2.385730028152466,1.50116444092, 0.256179577637, 9.61511386719, -0.969465648855, -1.10687022901, -0.595419847328
2.3889331817626953,1.50116444092, 0.256179577637, 9.61511386719, -0.969465648855, -1.10687022901, -0.595419847328
2.391461133956909,1.50116444092, 0.256179577637, 9.61511386719, -0.969465648855, -1.10687022901, -0.595419847328
2.3981921672821045,1.50116444092, 0.256179577637, 9.61511386719, -0.969465648855, -1.10687022901, -0.595419847328
2.400254964828491,1.50116444092, 0.256179577637, 9.61511386719, -0.969465648855, -1.10687022901, -0.595419847328
2.4024269580841064,1.50116444092, 0.256179577637, 9.61511386719, -0.969465648855, -1.10687022901, -0.595419847328
2.404306173324585,1.50116444092, 0.256179577637, 9.61511386719, -0.969465648855, -1.10687022901, -0.595419847328
2.4063570499420166,1.50116444092, 0.256179577637, 9.61511386719, -0.969465648855, -1.10687022901, -0.595419847328
2.408668041229248,1.50116444092, 0.256179577637, 9.61511386719, -0.969465648855, -1.10687022901, -0.595419847328
2.4111900329589844,1.50116444092, 0.256179577637, 9.61511386719, -0.969465648855, -1.10687022901, -0.595419847328
2.413923978805542,1.50116444092, 0.256179577637, 9.61511386719, -0.969465648855, -1.10687022901, -0.595419847328
2.416753053665161,1.50116444092, 0.256179577637, 9.61511386719, -0.969465648855, -1.10687022901, -0.595419847328
