time,acceX,acceY,acceZ,gyroX,gyroY,gyroZ
0.038596153259277344,,0,0,0,0
0.044782161712646484,,0,0,0,0
0.049021005630493164,,0,0,0,0
0.05620694160461426,,0,0,0,0
0.05908203125,,0,0,0,0
0.061051130294799805,,0,0,0,0
0.072052001953125,,0,0,0,0
0.0744781494140625,,0,0,0,0
0.0793149471282959,,0,0,0,0
0.09129810333251953,,0,0,0,0
0.0946800708770752,,0,0,0,0
0.09644699096679688,,0,0,0,0
0.09777712821960449,,0,0,0,0
0.1021571159362793,,0,0,0,0
0.10628414154052734,-2.17872351074, 0.138863696289, 9.37090529785, -0.0137228177829, -0.036905053649, -0.0137228177829
0.10817313194274902,-2.17872351074, 0.138863696289, 9.37090529785, -0.0137228177829, -0.036905053649, -0.0137228177829
0.1098489761352539,-2.17872351074, 0.138863696289, 9.37090529785, -0.0137228177829, -0.036905053649, -0.0137228177829
0.11202692985534668,-2.17872351074, 0.138863696289, 9.37090529785, -0.0137228177829, -0.036905053649, -0.0137228177829
0.11325311660766602,-2.17872351074, 0.138863696289, 9.37090529785, -0.0137228177829, -0.036905053649, -0.0137228177829
0.11422395706176758,-2.17872351074, 0.138863696289, 9.37090529785, -0.0137228177829, -0.036905053649, -0.0137228177829
0.11504912376403809,-2.17872351074, 0.138863696289, 9.37090529785, -0.0137228177829, -0.036905053649, -0.0137228177829
0.11578106880187988,-2.17872351074, 0.138863696289, 9.37090529785, -0.0137228177829, -0.036905053649, -0.0137228177829
0.11649012565612793,-2.17872351074, 0.138863696289, 9.37090529785, -0.0137228177829, -0.036905053649, -0.0137228177829
0.11730313301086426,-2.17872351074, 0.138863696289, 9.37090529785, -0.0137228177829, -0.036905053649, -0.0137228177829
0.11805295944213867,-2.17872351074, 0.138863696289, 9.37090529785, -0.0137228177829, -0.036905053649, -0.0137228177829
0.11874914169311523,-2.17872351074, 0.138863696289, 9.37090529785, -0.0137228177829, -0.036905053649, -0.0137228177829
0.11942696571350098,-2.17872351074, 0.138863696289, 9.37090529785, -0.0137228177829, -0.036905053649, -0.0137228177829
0.12010598182678223,-2.17872351074, 0.138863696289, 9.37090529785, -0.0137228177829, -0.036905053649, -0.0137228177829
0.12078213691711426,-2.17872351074, 0.138863696289, 9.37090529785, -0.0137228177829, -0.036905053649, -0.0137228177829
0.1214590072631836,-2.17872351074, 0.138863696289, 9.37090529785, -0.0137228177829, -0.036905053649, -0.0137228177829
0.12239503860473633,-2.17872351074, 0.138863696289, 9.37090529785, -0.0137228177829, -0.036905053649, -0.0137228177829
0.1232900619506836,-2.17872351074, 0.138863696289, 9.37090529785, -0.0137228177829, -0.036905053649, -0.0137228177829
0.12422704696655273,-2.17872351074, 0.138863696289, 9.37090529785, -0.0137228177829, -0.036905053649, -0.0137228177829
0.12542295455932617,-2.17872351074, 0.138863696289, 9.37090529785, -0.0137228177829, -0.036905053649, -0.0137228177829
0.1265261173248291,-2.17872351074, 0.138863696289, 9.37090529785, -0.0137228177829, -0.036905053649, -0.0137228177829
0.12756609916687012,-2.17872351074, 0.138863696289, 9.37090529785, -0.0137228177829, -0.036905053649, -0.0137228177829
0.12894296646118164,-2.17872351074, 0.138863696289, 9.37090529785, -0.0137228177829, -0.036905053649, -0.0137228177829
0.13005495071411133,-2.17872351074, 0.138863696289, 9.37090529785, -0.0137228177829, -0.036905053649, -0.0137228177829
0.13092303276062012,-2.17872351074, 0.138863696289, 9.37090529785, -0.0137228177829, -0.036905053649, -0.0137228177829
0.13177895545959473,-2.17872351074, 0.138863696289, 9.37090529785, -0.0137228177829, -0.036905053649, -0.0137228177829
0.1330111026763916,-2.17872351074, 0.138863696289, 9.37090529785, -0.0137228177829, -0.036905053649, -0.0137228177829
0.13443303108215332,-2.17872351074, 0.138863696289, 9.37090529785, -0.0137228177829, -0.036905053649, -0.0137228177829
0.13581204414367676,-2.17872351074, 0.138863696289, 9.37090529785, -0.0137228177829, -0.036905053649, -0.0137228177829
0.1370069980621338,-2.17872351074, 0.138863696289, 9.37090529785, -0.0137228177829, -0.036905053649, -0.0137228177829
0.13942599296569824,-2.17872351074, 0.138863696289, 9.37090529785, -0.0137228177829, -0.036905053649, -0.0137228177829
0.1410231590270996,-2.17872351074, 0.138863696289, 9.37090529785, -0.0137228177829, -0.036905053649, -0.0137228177829
0.14393401145935059,-2.17872351074, 0.138863696289, 9.37090529785, -0.0137228177829, -0.036905053649, -0.0137228177829
0.1456601619720459,-2.17872351074, 0.138863696289, 9.37090529785, -0.0137228177829, -0.036905053649, -0.0137228177829
0.1469261646270752,-2.17872351074, 0.138863696289, 9.37090529785, -0.0137228177829, -0.036905053649, -0.0137228177829
0.16058111190795898,-2.17872351074, 0.138863696289, 9.37090529785, -0.0137228177829, -0.036905053649, -0.0137228177829
0.1621389389038086,-2.17872351074, 0.138863696289, 9.37090529785, -0.0137228177829, -0.036905053649, -0.0137228177829
0.16347694396972656,-2.17872351074, 0.138863696289, 9.37090529785, -0.0137228177829, -0.036905053649, -0.0137228177829
0.16510510444641113,-2.17872351074, 0.138863696289, 9.37090529785, -0.0137228177829, -0.036905053649, -0.0137228177829
0.16706204414367676,-2.17872351074, 0.138863696289, 9.37090529785, -0.0137228177829, -0.036905053649, -0.0137228177829
0.1704871654510498,-2.17872351074, 0.138863696289, 9.37090529785, -0.0137228177829, -0.036905053649, -0.0137228177829
0.17258095741271973,-2.17872351074, 0.138863696289, 9.37090529785, -0.0137228177829, -0.036905053649, -0.0137228177829
0.17487215995788574,-2.17872351074, 0.138863696289, 9.37090529785, -0.0137228177829, -0.036905053649, -0.0137228177829
0.17621898651123047,-2.17872351074, 0.138863696289, 9.37090529785, -0.0137228177829, -0.036905053649, -0.0137228177829
0.17728304862976074,-2.17872351074, 0.138863696289, 9.37090529785, -0.0137228177829, -0.036905053649, -0.0137228177829
0.17847108840942383,-2.17872351074, 0.138863696289, 9.37090529785, -0.0137228177829, -0.036905053649, -0.0137228177829
0.1797940731048584,-2.17872351074, 0.138863696289, 9.37090529785, -0.0137228177829, -0.036905053649, -0.0137228177829
0.18110203742980957,-2.17872351074, 0.138863696289, 9.37090529785, -0.0137228177829, -0.036905053649, -0.0137228177829
0.1832871437072754,-2.17872351074, 0.138863696289, 9.37090529785, -0.0137228177829, -0.036905053649, -0.0137228177829
0.18647193908691406,-2.17872351074, 0.138863696289, 9.37090529785, -0.0137228177829, -0.036905053649, -0.0137228177829
0.18859195709228516,-2.17872351074, 0.138863696289, 9.37090529785, -0.0137228177829, -0.036905053649, -0.0137228177829
0.19037294387817383,-2.17872351074, 0.138863696289, 9.37090529785, -0.0137228177829, -0.036905053649, -0.0137228177829
0.19141507148742676,-2.17872351074, 0.138863696289, 9.37090529785, -0.0137228177829, -0.036905053649, -0.0137228177829
0.1926560401916504,-2.17872351074, 0.138863696289, 9.37090529785, -0.0137228177829, -0.036905053649, -0.0137228177829
0.19385910034179688,-2.17872351074, 0.138863696289, 9.37090529785, -0.0137228177829, -0.036905053649, -0.0137228177829
0.19530105590820312,-2.17872351074, 0.138863696289, 9.37090529785, -0.0137228177829, -0.036905053649, -0.0137228177829
0.19710993766784668,-2.17872351074, 0.138863696289, 9.37090529785, -0.0137228177829, -0.036905053649, -0.0137228177829
0.19893097877502441,-2.17872351074, 0.138863696289, 9.37090529785, -0.0137228177829, -0.036905053649, -0.0137228177829
0.2021191120147705,-2.17872351074, 0.138863696289, 9.37090529785, -0.0137228177829, -0.036905053649, -0.0137228177829
0.20509696006774902,-2.17872351074, 0.138863696289, 9.37090529785, -0.0137228177829, -0.036905053649, -0.0137228177829
0.2087099552154541,-2.22181914063, 0.0598550415039, 9.29668504639, -0.0143889739859, -0.0379709035739, -0.00999234304577
0.2105391025543213,-2.22181914063, 0.0598550415039, 9.29668504639, -0.0143889739859, -0.0379709035739, -0.00999234304577
0.21170496940612793,-2.22181914063, 0.0598550415039, 9.29668504639, -0.0143889739859, -0.0379709035739, -0.00999234304577
0.21289801597595215,-2.22181914063, 0.0598550415039, 9.29668504639, -0.0143889739859, -0.0379709035739, -0.00999234304577
0.21396613121032715,-2.22181914063, 0.0598550415039, 9.29668504639, -0.0143889739859, -0.0379709035739, -0.00999234304577
0.2156200408935547,-2.22181914063, 0.0598550415039, 9.29668504639, -0.0143889739859, -0.0379709035739, -0.00999234304577
0.21666312217712402,-2.22181914063, 0.0598550415039, 9.29668504639, -0.0143889739859, -0.0379709035739, -0.00999234304577
0.2174220085144043,-2.22181914063, 0.0598550415039, 9.29668504639, -0.0143889739859, -0.0379709035739, -0.00999234304577
0.2182021141052246,-2.22181914063, 0.0598550415039, 9.29668504639, -0.0143889739859, -0.0379709035739, -0.00999234304577
0.21889305114746094,-2.22181914063, 0.0598550415039, 9.29668504639, -0.0143889739859, -0.0379709035739, -0.00999234304577
0.21956610679626465,-2.22181914063, 0.0598550415039, 9.29668504639, -0.0143889739859, -0.0379709035739, -0.00999234304577
0.22026395797729492,-2.22181914063, 0.0598550415039, 9.29668504639, -0.0143889739859, -0.0379709035739, -0.00999234304577
0.22125697135925293,-2.22181914063, 0.0598550415039, 9.29668504639, -0.0143889739859, -0.0379709035739, -0.00999234304577
0.2223830223083496,-2.22181914063, 0.0598550415039, 9.29668504639, -0.0143889739859, -0.0379709035739, -0.00999234304577
0.22336411476135254,-2.22181914063, 0.0598550415039, 9.29668504639, -0.0143889739859, -0.0379709035739, -0.00999234304577
0.22411704063415527,-2.22181914063, 0.0598550415039, 9.29668504639, -0.0143889739859, -0.0379709035739, -0.00999234304577
0.22490596771240234,-2.22181914063, 0.0598550415039, 9.29668504639, -0.0143889739859, -0.0379709035739, -0.00999234304577
0.22587800025939941,-2.22181914063, 0.0598550415039, 9.29668504639, -0.0143889739859, -0.0379709035739, -0.00999234304577
0.22687101364135742,-2.22181914063, 0.0598550415039, 9.29668504639, -0.0143889739859, -0.0379709035739, -0.00999234304577
0.2279679775238037,-2.22181914063, 0.0598550415039, 9.29668504639, -0.0143889739859, -0.0379709035739, -0.00999234304577
0.22912001609802246,-2.22181914063, 0.0598550415039, 9.29668504639, -0.0143889739859, -0.0379709035739, -0.00999234304577
0.23144197463989258,-2.22181914063, 0.0598550415039, 9.29668504639, -0.0143889739859, -0.0379709035739, -0.00999234304577
0.23317909240722656,-2.22181914063, 0.0598550415039, 9.29668504639, -0.0143889739859, -0.0379709035739, -0.00999234304577
0.23517107963562012,-2.22181914063, 0.0598550415039, 9.29668504639, -0.0143889739859, -0.0379709035739, -0.00999234304577
0.23743414878845215,-2.22181914063, 0.0598550415039, 9.29668504639, -0.0143889739859, -0.0379709035739, -0.00999234304577
0.2391970157623291,-2.22181914063, 0.0598550415039, 9.29668504639, -0.0143889739859, -0.0379709035739, -0.00999234304577
0.2404770851135254,-2.22181914063, 0.0598550415039, 9.29668504639, -0.0143889739859, -0.0379709035739, -0.00999234304577
0.2428600788116455,-2.22181914063, 0.0598550415039, 9.29668504639, -0.0143889739859, -0.0379709035739, -0.00999234304577
0.24421095848083496,-2.22181914063, 0.0598550415039, 9.29668504639, -0.0143889739859, -0.0379709035739, -0.00999234304577
0.24556398391723633,-2.22181914063, 0.0598550415039, 9.29668504639, -0.0143889739859, -0.0379709035739, -0.00999234304577
0.24673700332641602,-2.22181914063, 0.0598550415039, 9.29668504639, -0.0143889739859, -0.0379709035739, -0.00999234304577
0.24773693084716797,-2.22181914063, 0.0598550415039, 9.29668504639, -0.0143889739859, -0.0379709035739, -0.00999234304577
0.2489781379699707,-2.22181914063, 0.0598550415039, 9.29668504639, -0.0143889739859, -0.0379709035739, -0.00999234304577
0.24995899200439453,-2.22181914063, 0.0598550415039, 9.29668504639, -0.0143889739859, -0.0379709035739, -0.00999234304577
0.25086307525634766,-2.22181914063, 0.0598550415039, 9.29668504639, -0.0143889739859, -0.0379709035739, -0.00999234304577
0.251816987991333,-2.22181914063, 0.0598550415039, 9.29668504639, -0.0143889739859, -0.0379709035739, -0.00999234304577
0.25318312644958496,-2.22181914063, 0.0598550415039, 9.29668504639, -0.0143889739859, -0.0379709035739, -0.00999234304577
0.2543001174926758,-2.22181914063, 0.0598550415039, 9.29668504639, -0.0143889739859, -0.0379709035739, -0.00999234304577
0.2554481029510498,-2.22181914063, 0.0598550415039, 9.29668504639, -0.0143889739859, -0.0379709035739, -0.00999234304577
0.256641149520874,-2.22181914063, 0.0598550415039, 9.29668504639, -0.0143889739859, -0.0379709035739, -0.00999234304577
0.25795412063598633,-2.22181914063, 0.0598550415039, 9.29668504639, -0.0143889739859, -0.0379709035739, -0.00999234304577
0.25945615768432617,-2.22181914063, 0.0598550415039, 9.29668504639, -0.0143889739859, -0.0379709035739, -0.00999234304577
0.26106810569763184,-2.22181914063, 0.0598550415039, 9.29668504639, -0.0143889739859, -0.0379709035739, -0.00999234304577
0.263092041015625,-2.22181914063, 0.0598550415039, 9.29668504639, -0.0143889739859, -0.0379709035739, -0.00999234304577
0.26638102531433105,-2.22181914063, 0.0598550415039, 9.29668504639, -0.0143889739859, -0.0379709035739, -0.00999234304577
0.2684781551361084,-2.22181914063, 0.0598550415039, 9.29668504639, -0.0143889739859, -0.0379709035739, -0.00999234304577
0.2708110809326172,-2.22181914063, 0.0598550415039, 9.29668504639, -0.0143889739859, -0.0379709035739, -0.00999234304577
0.2723500728607178,-2.22181914063, 0.0598550415039, 9.29668504639, -0.0143889739859, -0.0379709035739, -0.00999234304577
0.27387094497680664,-2.22181914063, 0.0598550415039, 9.29668504639, -0.0143889739859, -0.0379709035739, -0.00999234304577
0.27506494522094727,-2.22181914063, 0.0598550415039, 9.29668504639, -0.0143889739859, -0.0379709035739, -0.00999234304577
0.2763230800628662,-2.22181914063, 0.0598550415039, 9.29668504639, -0.0143889739859, -0.0379709035739, -0.00999234304577
0.27767395973205566,-2.22181914063, 0.0598550415039, 9.29668504639, -0.0143889739859, -0.0379709035739, -0.00999234304577
0.2789771556854248,-2.22181914063, 0.0598550415039, 9.29668504639, -0.0143889739859, -0.0379709035739, -0.00999234304577
0.2799971103668213,-2.22181914063, 0.0598550415039, 9.29668504639, -0.0143889739859, -0.0379709035739, -0.00999234304577
0.28088998794555664,-2.22181914063, 0.0598550415039, 9.29668504639, -0.0143889739859, -0.0379709035739, -0.00999234304577
0.28179001808166504,-2.22181914063, 0.0598550415039, 9.29668504639, -0.0143889739859, -0.0379709035739, -0.00999234304577
0.2832059860229492,-2.22181914063, 0.0598550415039, 9.29668504639, -0.0143889739859, -0.0379709035739, -0.00999234304577
0.2844729423522949,-2.22181914063, 0.0598550415039, 9.29668504639, -0.0143889739859, -0.0379709035739, -0.00999234304577
0.28580808639526367,-2.22181914063, 0.0598550415039, 9.29668504639, -0.0143889739859, -0.0379709035739, -0.00999234304577
0.2869279384613037,-2.22181914063, 0.0598550415039, 9.29668504639, -0.0143889739859, -0.0379709035739, -0.00999234304577
0.28815293312072754,-2.22181914063, 0.0598550415039, 9.29668504639, -0.0143889739859, -0.0379709035739, -0.00999234304577
0.28951501846313477,-2.22181914063, 0.0598550415039, 9.29668504639, -0.0143889739859, -0.0379709035739, -0.00999234304577
0.2927861213684082,-2.22181914063, 0.0598550415039, 9.29668504639, -0.0143889739859, -0.0379709035739, -0.00999234304577
0.2958040237426758,-2.22181914063, 0.0598550415039, 9.29668504639, -0.0143889739859, -0.0379709035739, -0.00999234304577
0.29889512062072754,-2.22181914063, 0.0598550415039, 9.29668504639, -0.0143889739859, -0.0379709035739, -0.00999234304577
0.3008689880371094,-2.22181914063, 0.0598550415039, 9.29668504639, -0.0143889739859, -0.0379709035739, -0.00999234304577
0.30489301681518555,-2.1571756958, 0.0694318481445, 9.20331118164, -0.0123905053768, -0.0399693721831, -0.00852679939906
0.3065180778503418,-2.1571756958, 0.0694318481445, 9.20331118164, -0.0123905053768, -0.0399693721831, -0.00852679939906
0.30769801139831543,-2.1571756958, 0.0694318481445, 9.20331118164, -0.0123905053768, -0.0399693721831, -0.00852679939906
0.30886006355285645,-2.1571756958, 0.0694318481445, 9.20331118164, -0.0123905053768, -0.0399693721831, -0.00852679939906
0.31003403663635254,-2.1571756958, 0.0694318481445, 9.20331118164, -0.0123905053768, -0.0399693721831, -0.00852679939906
0.3111879825592041,-2.1571756958, 0.0694318481445, 9.20331118164, -0.0123905053768, -0.0399693721831, -0.00852679939906
0.31261610984802246,-2.1571756958, 0.0694318481445, 9.20331118164, -0.0123905053768, -0.0399693721831, -0.00852679939906
0.31387901306152344,-2.1571756958, 0.0694318481445, 9.20331118164, -0.0123905053768, -0.0399693721831, -0.00852679939906
0.31494903564453125,-2.1571756958, 0.0694318481445, 9.20331118164, -0.0123905053768, -0.0399693721831, -0.00852679939906
0.31592297554016113,-2.1571756958, 0.0694318481445, 9.20331118164, -0.0123905053768, -0.0399693721831, -0.00852679939906
0.31703805923461914,-2.1571756958, 0.0694318481445, 9.20331118164, -0.0123905053768, -0.0399693721831, -0.00852679939906
0.31847715377807617,-2.1571756958, 0.0694318481445, 9.20331118164, -0.0123905053768, -0.0399693721831, -0.00852679939906
0.3213231563568115,-2.1571756958, 0.0694318481445, 9.20331118164, -0.0123905053768, -0.0399693721831, -0.00852679939906
0.3243870735168457,-2.1571756958, 0.0694318481445, 9.20331118164, -0.0123905053768, -0.0399693721831, -0.00852679939906
0.32671499252319336,-2.1571756958, 0.0694318481445, 9.20331118164, -0.0123905053768, -0.0399693721831, -0.00852679939906
0.32857513427734375,-2.1571756958, 0.0694318481445, 9.20331118164, -0.0123905053768, -0.0399693721831, -0.00852679939906
0.32966113090515137,-2.1571756958, 0.0694318481445, 9.20331118164, -0.0123905053768, -0.0399693721831, -0.00852679939906
0.33047008514404297,-2.1571756958, 0.0694318481445, 9.20331118164, -0.0123905053768, -0.0399693721831, -0.00852679939906
0.3312251567840576,-2.1571756958, 0.0694318481445, 9.20331118164, -0.0123905053768, -0.0399693721831, -0.00852679939906
0.3321349620819092,-2.1571756958, 0.0694318481445, 9.20331118164, -0.0123905053768, -0.0399693721831, -0.00852679939906
0.33321499824523926,-2.1571756958, 0.0694318481445, 9.20331118164, -0.0123905053768, -0.0399693721831, -0.00852679939906
0.33419299125671387,-2.1571756958, 0.0694318481445, 9.20331118164, -0.0123905053768, -0.0399693721831, -0.00852679939906
0.3350510597229004,-2.1571756958, 0.0694318481445, 9.20331118164, -0.0123905053768, -0.0399693721831, -0.00852679939906
0.3359849452972412,-2.1571756958, 0.0694318481445, 9.20331118164, -0.0123905053768, -0.0399693721831, -0.00852679939906
0.3368110656738281,-2.1571756958, 0.0694318481445, 9.20331118164, -0.0123905053768, -0.0399693721831, -0.00852679939906
0.33753013610839844,-2.1571756958, 0.0694318481445, 9.20331118164, -0.0123905053768, -0.0399693721831, -0.00852679939906
0.33824801445007324,-2.1571756958, 0.0694318481445, 9.20331118164, -0.0123905053768, -0.0399693721831, -0.00852679939906
0.3389749526977539,-2.1571756958, 0.0694318481445, 9.20331118164, -0.0123905053768, -0.0399693721831, -0.00852679939906
0.34021806716918945,-2.1571756958, 0.0694318481445, 9.20331118164, -0.0123905053768, -0.0399693721831, -0.00852679939906
0.3421659469604492,-2.1571756958, 0.0694318481445, 9.20331118164, -0.0123905053768, -0.0399693721831, -0.00852679939906
0.3431661128997803,-2.1571756958, 0.0694318481445, 9.20331118164, -0.0123905053768, -0.0399693721831, -0.00852679939906
0.34397196769714355,-2.1571756958, 0.0694318481445, 9.20331118164, -0.0123905053768, -0.0399693721831, -0.00852679939906
0.3447120189666748,-2.1571756958, 0.0694318481445, 9.20331118164, -0.0123905053768, -0.0399693721831, -0.00852679939906
0.3454420566558838,-2.1571756958, 0.0694318481445, 9.20331118164, -0.0123905053768, -0.0399693721831, -0.00852679939906
0.34615206718444824,-2.1571756958, 0.0694318481445, 9.20331118164, -0.0123905053768, -0.0399693721831, -0.00852679939906
0.3468921184539795,-2.1571756958, 0.0694318481445, 9.20331118164, -0.0123905053768, -0.0399693721831, -0.00852679939906
0.3477511405944824,-2.1571756958, 0.0694318481445, 9.20331118164, -0.0123905053768, -0.0399693721831, -0.00852679939906
0.3486189842224121,-2.1571756958, 0.0694318481445, 9.20331118164, -0.0123905053768, -0.0399693721831, -0.00852679939906
0.34957408905029297,-2.1571756958, 0.0694318481445, 9.20331118164, -0.0123905053768, -0.0399693721831, -0.00852679939906
0.3505840301513672,-2.1571756958, 0.0694318481445, 9.20331118164, -0.0123905053768, -0.0399693721831, -0.00852679939906
0.35219311714172363,-2.1571756958, 0.0694318481445, 9.20331118164, -0.0123905053768, -0.0399693721831, -0.00852679939906
0.35544800758361816,-2.1571756958, 0.0694318481445, 9.20331118164, -0.0123905053768, -0.0399693721831, -0.00852679939906
0.35755395889282227,-2.1571756958, 0.0694318481445, 9.20331118164, -0.0123905053768, -0.0399693721831, -0.00852679939906
0.3595869541168213,-2.1571756958, 0.0694318481445, 9.20331118164, -0.0123905053768, -0.0399693721831, -0.00852679939906
0.3608701229095459,-2.1571756958, 0.0694318481445, 9.20331118164, -0.0123905053768, -0.0399693721831, -0.00852679939906
0.36229896545410156,-2.1571756958, 0.0694318481445, 9.20331118164, -0.0123905053768, -0.0399693721831, -0.00852679939906
0.3637521266937256,-2.1571756958, 0.0694318481445, 9.20331118164, -0.0123905053768, -0.0399693721831, -0.00852679939906
0.3653140068054199,-2.1571756958, 0.0694318481445, 9.20331118164, -0.0123905053768, -0.0399693721831, -0.00852679939906
0.3667581081390381,-2.1571756958, 0.0694318481445, 9.20331118164, -0.0123905053768, -0.0399693721831, -0.00852679939906
0.36781907081604004,-2.1571756958, 0.0694318481445, 9.20331118164, -0.0123905053768, -0.0399693721831, -0.00852679939906
0.3687610626220703,-2.1571756958, 0.0694318481445, 9.20331118164, -0.0123905053768, -0.0399693721831, -0.00852679939906
0.3698699474334717,-2.1571756958, 0.0694318481445, 9.20331118164, -0.0123905053768, -0.0399693721831, -0.00852679939906
0.37091612815856934,-2.1571756958, 0.0694318481445, 9.20331118164, -0.0123905053768, -0.0399693721831, -0.00852679939906
0.3719141483306885,-2.1571756958, 0.0694318481445, 9.20331118164, -0.0123905053768, -0.0399693721831, -0.00852679939906
0.37342309951782227,-2.1571756958, 0.0694318481445, 9.20331118164, -0.0123905053768, -0.0399693721831, -0.00852679939906
0.3748180866241455,-2.1571756958, 0.0694318481445, 9.20331118164, -0.0123905053768, -0.0399693721831, -0.00852679939906
0.37646913528442383,-2.1571756958, 0.0694318481445, 9.20331118164, -0.0123905053768, -0.0399693721831, -0.00852679939906
0.37795400619506836,-2.1571756958, 0.0694318481445, 9.20331118164, -0.0123905053768, -0.0399693721831, -0.00852679939906
0.37967705726623535,-2.1571756958, 0.0694318481445, 9.20331118164, -0.0123905053768, -0.0399693721831, -0.00852679939906
0.38112497329711914,-2.1571756958, 0.0694318481445, 9.20331118164, -0.0123905053768, -0.0399693721831, -0.00852679939906
0.38216114044189453,-2.1571756958, 0.0694318481445, 9.20331118164, -0.0123905053768, -0.0399693721831, -0.00852679939906
0.3835630416870117,-2.1571756958, 0.0694318481445, 9.20331118164, -0.0123905053768, -0.0399693721831, -0.00852679939906
0.3847081661224365,-2.1571756958, 0.0694318481445, 9.20331118164, -0.0123905053768, -0.0399693721831, -0.00852679939906
0.386091947555542,-2.1571756958, 0.0694318481445, 9.20331118164, -0.0123905053768, -0.0399693721831, -0.00852679939906
0.3874509334564209,-2.1571756958, 0.0694318481445, 9.20331118164, -0.0123905053768, -0.0399693721831, -0.00852679939906
0.3888731002807617,-2.1571756958, 0.0694318481445, 9.20331118164, -0.0123905053768, -0.0399693721831, -0.00852679939906
0.3914680480957031,-2.1571756958, 0.0694318481445, 9.20331118164, -0.0123905053768, -0.0399693721831, -0.00852679939906
0.39472103118896484,-2.1571756958, 0.0694318481445, 9.20331118164, -0.0123905053768, -0.0399693721831, -0.00852679939906
0.3971560001373291,-2.1571756958, 0.0694318481445, 9.20331118164, -0.0123905053768, -0.0399693721831, -0.00852679939906
0.40050196647644043,-2.1571756958, 0.0694318481445, 9.20331118164, -0.0123905053768, -0.0399693721831, -0.00852679939906
0.4044640064239502,-2.1332336792, 0.117315881348, 9.37808790283, -0.013323124061, -0.0401026034237, -0.00959264932394
0.4059109687805176,-2.1332336792, 0.117315881348, 9.37808790283, -0.013323124061, -0.0401026034237, -0.00959264932394
0.40723299980163574,-2.1332336792, 0.117315881348, 9.37808790283, -0.013323124061, -0.0401026034237, -0.00959264932394
0.4085350036621094,-2.1332336792, 0.117315881348, 9.37808790283, -0.013323124061, -0.0401026034237, -0.00959264932394
0.40966296195983887,-2.1332336792, 0.117315881348, 9.37808790283, -0.013323124061, -0.0401026034237, -0.00959264932394
0.4108541011810303,-2.1332336792, 0.117315881348, 9.37808790283, -0.013323124061, -0.0401026034237, -0.00959264932394
0.41204214096069336,-2.1332336792, 0.117315881348, 9.37808790283, -0.013323124061, -0.0401026034237, -0.00959264932394
0.41338300704956055,-2.1332336792, 0.117315881348, 9.37808790283, -0.013323124061, -0.0401026034237, -0.00959264932394
0.41466712951660156,-2.1332336792, 0.117315881348, 9.37808790283, -0.013323124061, -0.0401026034237, -0.00959264932394
0.41616106033325195,-2.1332336792, 0.117315881348, 9.37808790283, -0.013323124061, -0.0401026034237, -0.00959264932394
0.41751813888549805,-2.1332336792, 0.117315881348, 9.37808790283, -0.013323124061, -0.0401026034237, -0.00959264932394
0.4191560745239258,-2.1332336792, 0.117315881348, 9.37808790283, -0.013323124061, -0.0401026034237, -0.00959264932394
0.4236781597137451,-2.1332336792, 0.117315881348, 9.37808790283, -0.013323124061, -0.0401026034237, -0.00959264932394
0.4262690544128418,-2.1332336792, 0.117315881348, 9.37808790283, -0.013323124061, -0.0401026034237, -0.00959264932394
0.4287240505218506,-2.1332336792, 0.117315881348, 9.37808790283, -0.013323124061, -0.0401026034237, -0.00959264932394
0.42996907234191895,-2.1332336792, 0.117315881348, 9.37808790283, -0.013323124061, -0.0401026034237, -0.00959264932394
0.4311349391937256,-2.1332336792, 0.117315881348, 9.37808790283, -0.013323124061, -0.0401026034237, -0.00959264932394
0.43212413787841797,-2.1332336792, 0.117315881348, 9.37808790283, -0.013323124061, -0.0401026034237, -0.00959264932394
0.433521032333374,-2.1332336792, 0.117315881348, 9.37808790283, -0.013323124061, -0.0401026034237, -0.00959264932394
0.43491697311401367,-2.1332336792, 0.117315881348, 9.37808790283, -0.013323124061, -0.0401026034237, -0.00959264932394
0.43644213676452637,-2.1332336792, 0.117315881348, 9.37808790283, -0.013323124061, -0.0401026034237, -0.00959264932394
0.4377269744873047,-2.1332336792, 0.117315881348, 9.37808790283, -0.013323124061, -0.0401026034237, -0.00959264932394
0.4389309883117676,-2.1332336792, 0.117315881348, 9.37808790283, -0.013323124061, -0.0401026034237, -0.00959264932394
0.4404129981994629,-2.1332336792, 0.117315881348, 9.37808790283, -0.013323124061, -0.0401026034237, -0.00959264932394
0.44289302825927734,-2.1332336792, 0.117315881348, 9.37808790283, -0.013323124061, -0.0401026034237, -0.00959264932394
0.44415903091430664,-2.1332336792, 0.117315881348, 9.37808790283, -0.013323124061, -0.0401026034237, -0.00959264932394
0.4449601173400879,-2.1332336792, 0.117315881348, 9.37808790283, -0.013323124061, -0.0401026034237, -0.00959264932394
0.44570493698120117,-2.1332336792, 0.117315881348, 9.37808790283, -0.013323124061, -0.0401026034237, -0.00959264932394
0.4465150833129883,-2.1332336792, 0.117315881348, 9.37808790283, -0.013323124061, -0.0401026034237, -0.00959264932394
0.44739699363708496,-2.1332336792, 0.117315881348, 9.37808790283, -0.013323124061, -0.0401026034237, -0.00959264932394
0.4486219882965088,-2.1332336792, 0.117315881348, 9.37808790283, -0.013323124061, -0.0401026034237, -0.00959264932394
0.4497530460357666,-2.1332336792, 0.117315881348, 9.37808790283, -0.013323124061, -0.0401026034237, -0.00959264932394
0.45100903511047363,-2.1332336792, 0.117315881348, 9.37808790283, -0.013323124061, -0.0401026034237, -0.00959264932394
0.4542369842529297,-2.1332336792, 0.117315881348, 9.37808790283, -0.013323124061, -0.0401026034237, -0.00959264932394
0.45592713356018066,-2.1332336792, 0.117315881348, 9.37808790283, -0.013323124061, -0.0401026034237, -0.00959264932394
0.45831298828125,-2.1332336792, 0.117315881348, 9.37808790283, -0.013323124061, -0.0401026034237, -0.00959264932394
0.45979809761047363,-2.1332336792, 0.117315881348, 9.37808790283, -0.013323124061, -0.0401026034237, -0.00959264932394
0.46112513542175293,-2.1332336792, 0.117315881348, 9.37808790283, -0.013323124061, -0.0401026034237, -0.00959264932394
0.4628641605377197,-2.1332336792, 0.117315881348, 9.37808790283, -0.013323124061, -0.0401026034237, -0.00959264932394
0.4642500877380371,-2.1332336792, 0.117315881348, 9.37808790283, -0.013323124061, -0.0401026034237, -0.00959264932394
0.46593809127807617,-2.1332336792, 0.117315881348, 9.37808790283, -0.013323124061, -0.0401026034237, -0.00959264932394
0.46732211112976074,-2.1332336792, 0.117315881348, 9.37808790283, -0.013323124061, -0.0401026034237, -0.00959264932394
0.46851515769958496,-2.1332336792, 0.117315881348, 9.37808790283, -0.013323124061, -0.0401026034237, -0.00959264932394
0.46946215629577637,-2.1332336792, 0.117315881348, 9.37808790283, -0.013323124061, -0.0401026034237, -0.00959264932394
0.4704780578613281,-2.1332336792, 0.117315881348, 9.37808790283, -0.013323124061, -0.0401026034237, -0.00959264932394
0.4715721607208252,-2.1332336792, 0.117315881348, 9.37808790283, -0.013323124061, -0.0401026034237, -0.00959264932394
0.4730250835418701,-2.1332336792, 0.117315881348, 9.37808790283, -0.013323124061, -0.0401026034237, -0.00959264932394
0.47429704666137695,-2.1332336792, 0.117315881348, 9.37808790283, -0.013323124061, -0.0401026034237, -0.00959264932394
0.4755370616912842,-2.1332336792, 0.117315881348, 9.37808790283, -0.013323124061, -0.0401026034237, -0.00959264932394
0.4768509864807129,-2.1332336792, 0.117315881348, 9.37808790283, -0.013323124061, -0.0401026034237, -0.00959264932394
0.4781031608581543,-2.1332336792, 0.117315881348, 9.37808790283, -0.013323124061, -0.0401026034237, -0.00959264932394
0.47937703132629395,-2.1332336792, 0.117315881348, 9.37808790283, -0.013323124061, -0.0401026034237, -0.00959264932394
0.4811241626739502,-2.1332336792, 0.117315881348, 9.37808790283, -0.013323124061, -0.0401026034237, -0.00959264932394
0.48357200622558594,-2.1332336792, 0.117315881348, 9.37808790283, -0.013323124061, -0.0401026034237, -0.00959264932394
0.48732900619506836,-2.1332336792, 0.117315881348, 9.37808790283, -0.013323124061, -0.0401026034237, -0.00959264932394
0.48960208892822266,-2.1332336792, 0.117315881348, 9.37808790283, -0.013323124061, -0.0401026034237, -0.00959264932394
0.4920029640197754,-2.1332336792, 0.117315881348, 9.37808790283, -0.013323124061, -0.0401026034237, -0.00959264932394
0.49374914169311523,-2.1332336792, 0.117315881348, 9.37808790283, -0.013323124061, -0.0401026034237, -0.00959264932394
0.49526095390319824,-2.1332336792, 0.117315881348, 9.37808790283, -0.013323124061, -0.0401026034237, -0.00959264932394
0.49810314178466797,-2.1332336792, 0.117315881348, 9.37808790283, -0.013323124061, -0.0401026034237, -0.00959264932394
0.4996521472930908,-2.1332336792, 0.117315881348, 9.37808790283, -0.013323124061, -0.0401026034237, -0.00959264932394
0.5009000301361084,-2.1332336792, 0.117315881348, 9.37808790283, -0.013323124061, -0.0401026034237, -0.00959264932394
0.5046391487121582,-2.205059729, 0.15083470459, 9.2535894165, -0.015721286392, -0.0373047473709, -0.00879326188028
0.5059170722961426,-2.205059729, 0.15083470459, 9.2535894165, -0.015721286392, -0.0373047473709, -0.00879326188028
0.5072150230407715,-2.205059729, 0.15083470459, 9.2535894165, -0.015721286392, -0.0373047473709, -0.00879326188028
0.5087730884552002,-2.205059729, 0.15083470459, 9.2535894165, -0.015721286392, -0.0373047473709, -0.00879326188028
0.5120999813079834,-2.205059729, 0.15083470459, 9.2535894165, -0.015721286392, -0.0373047473709, -0.00879326188028
0.5149030685424805,-2.205059729, 0.15083470459, 9.2535894165, -0.015721286392, -0.0373047473709, -0.00879326188028
0.5173909664154053,-2.205059729, 0.15083470459, 9.2535894165, -0.015721286392, -0.0373047473709, -0.00879326188028
0.5188009738922119,-2.205059729, 0.15083470459, 9.2535894165, -0.015721286392, -0.0373047473709, -0.00879326188028
0.519895076751709,-2.205059729, 0.15083470459, 9.2535894165, -0.015721286392, -0.0373047473709, -0.00879326188028
0.5212039947509766,-2.205059729, 0.15083470459, 9.2535894165, -0.015721286392, -0.0373047473709, -0.00879326188028
0.5229799747467041,-2.205059729, 0.15083470459, 9.2535894165, -0.015721286392, -0.0373047473709, -0.00879326188028
0.5243730545043945,-2.205059729, 0.15083470459, 9.2535894165, -0.015721286392, -0.0373047473709, -0.00879326188028
0.5256130695343018,-2.205059729, 0.15083470459, 9.2535894165, -0.015721286392, -0.0373047473709, -0.00879326188028
0.5267889499664307,-2.205059729, 0.15083470459, 9.2535894165, -0.015721286392, -0.0373047473709, -0.00879326188028
0.528062105178833,-2.205059729, 0.15083470459, 9.2535894165, -0.015721286392, -0.0373047473709, -0.00879326188028
0.5292420387268066,-2.205059729, 0.15083470459, 9.2535894165, -0.015721286392, -0.0373047473709, -0.00879326188028
0.5302071571350098,-2.205059729, 0.15083470459, 9.2535894165, -0.015721286392, -0.0373047473709, -0.00879326188028
0.5311131477355957,-2.205059729, 0.15083470459, 9.2535894165, -0.015721286392, -0.0373047473709, -0.00879326188028
0.5318629741668701,-2.205059729, 0.15083470459, 9.2535894165, -0.015721286392, -0.0373047473709, -0.00879326188028
0.5327589511871338,-2.205059729, 0.15083470459, 9.2535894165, -0.015721286392, -0.0373047473709, -0.00879326188028
0.533782958984375,-2.205059729, 0.15083470459, 9.2535894165, -0.015721286392, -0.0373047473709, -0.00879326188028
0.5348861217498779,-2.205059729, 0.15083470459, 9.2535894165, -0.015721286392, -0.0373047473709, -0.00879326188028
0.5359251499176025,-2.205059729, 0.15083470459, 9.2535894165, -0.015721286392, -0.0373047473709, -0.00879326188028
0.5369541645050049,-2.205059729, 0.15083470459, 9.2535894165, -0.015721286392, -0.0373047473709, -0.00879326188028
0.5377850532531738,-2.205059729, 0.15083470459, 9.2535894165, -0.015721286392, -0.0373047473709, -0.00879326188028
0.5387139320373535,-2.205059729, 0.15083470459, 9.2535894165, -0.015721286392, -0.0373047473709, -0.00879326188028
0.5414090156555176,-2.205059729, 0.15083470459, 9.2535894165, -0.015721286392, -0.0373047473709, -0.00879326188028
0.5429389476776123,-2.205059729, 0.15083470459, 9.2535894165, -0.015721286392, -0.0373047473709, -0.00879326188028
0.5445840358734131,-2.205059729, 0.15083470459, 9.2535894165, -0.015721286392, -0.0373047473709, -0.00879326188028
0.5472750663757324,-2.205059729, 0.15083470459, 9.2535894165, -0.015721286392, -0.0373047473709, -0.00879326188028
0.5497829914093018,-2.205059729, 0.15083470459, 9.2535894165, -0.015721286392, -0.0373047473709, -0.00879326188028
0.5515601634979248,-2.205059729, 0.15083470459, 9.2535894165, -0.015721286392, -0.0373047473709, -0.00879326188028
0.5532259941101074,-2.205059729, 0.15083470459, 9.2535894165, -0.015721286392, -0.0373047473709, -0.00879326188028
0.554671049118042,-2.205059729, 0.15083470459, 9.2535894165, -0.015721286392, -0.0373047473709, -0.00879326188028
0.5559861660003662,-2.205059729, 0.15083470459, 9.2535894165, -0.015721286392, -0.0373047473709, -0.00879326188028
0.5584731101989746,-2.205059729, 0.15083470459, 9.2535894165, -0.015721286392, -0.0373047473709, -0.00879326188028
0.5603170394897461,-2.205059729, 0.15083470459, 9.2535894165, -0.015721286392, -0.0373047473709, -0.00879326188028
0.5618529319763184,-2.205059729, 0.15083470459, 9.2535894165, -0.015721286392, -0.0373047473709, -0.00879326188028
0.563270092010498,-2.205059729, 0.15083470459, 9.2535894165, -0.015721286392, -0.0373047473709, -0.00879326188028
0.5649480819702148,-2.205059729, 0.15083470459, 9.2535894165, -0.015721286392, -0.0373047473709, -0.00879326188028
0.5664160251617432,-2.205059729, 0.15083470459, 9.2535894165, -0.015721286392, -0.0373047473709, -0.00879326188028
0.5676050186157227,-2.205059729, 0.15083470459, 9.2535894165, -0.015721286392, -0.0373047473709, -0.00879326188028
0.5687770843505859,-2.205059729, 0.15083470459, 9.2535894165, -0.015721286392, -0.0373047473709, -0.00879326188028
0.5701749324798584,-2.205059729, 0.15083470459, 9.2535894165, -0.015721286392, -0.0373047473709, -0.00879326188028
0.571882963180542,-2.205059729, 0.15083470459, 9.2535894165, -0.015721286392, -0.0373047473709, -0.00879326188028
0.5763440132141113,-2.205059729, 0.15083470459, 9.2535894165, -0.015721286392, -0.0373047473709, -0.00879326188028
0.5791890621185303,-2.205059729, 0.15083470459, 9.2535894165, -0.015721286392, -0.0373047473709, -0.00879326188028
0.5814030170440674,-2.205059729, 0.15083470459, 9.2535894165, -0.015721286392, -0.0373047473709, -0.00879326188028
0.5833690166473389,-2.205059729, 0.15083470459, 9.2535894165, -0.015721286392, -0.0373047473709, -0.00879326188028
0.5847289562225342,-2.205059729, 0.15083470459, 9.2535894165, -0.015721286392, -0.0373047473709, -0.00879326188028
0.5862510204315186,-2.205059729, 0.15083470459, 9.2535894165, -0.015721286392, -0.0373047473709, -0.00879326188028
0.587554931640625,-2.205059729, 0.15083470459, 9.2535894165, -0.015721286392, -0.0373047473709, -0.00879326188028
0.5890419483184814,-2.205059729, 0.15083470459, 9.2535894165, -0.015721286392, -0.0373047473709, -0.00879326188028
0.5902841091156006,-2.205059729, 0.15083470459, 9.2535894165, -0.015721286392, -0.0373047473709, -0.00879326188028
0.5919280052185059,-2.205059729, 0.15083470459, 9.2535894165, -0.015721286392, -0.0373047473709, -0.00879326188028
0.5933949947357178,-2.205059729, 0.15083470459, 9.2535894165, -0.015721286392, -0.0373047473709, -0.00879326188028
0.5948851108551025,-2.205059729, 0.15083470459, 9.2535894165, -0.015721286392, -0.0373047473709, -0.00879326188028
0.5963261127471924,-2.205059729, 0.15083470459, 9.2535894165, -0.015721286392, -0.0373047473709, -0.00879326188028
0.5978569984436035,-2.205059729, 0.15083470459, 9.2535894165, -0.015721286392, -0.0373047473709, -0.00879326188028
0.6007170677185059,-2.205059729, 0.15083470459, 9.2535894165, -0.015721286392, -0.0373047473709, -0.00879326188028
0.6043260097503662,-2.1811177124, 0.277727392578, 9.23922420654, -0.0151883614296, -0.036905053649, -0.012656967858
0.6060149669647217,-2.1811177124, 0.277727392578, 9.23922420654, -0.0151883614296, -0.036905053649, -0.012656967858
0.6079859733581543,-2.1811177124, 0.277727392578, 9.23922420654, -0.0151883614296, -0.036905053649, -0.012656967858
0.6114540100097656,-2.1811177124, 0.277727392578, 9.23922420654, -0.0151883614296, -0.036905053649, -0.012656967858
0.6140029430389404,-2.1811177124, 0.277727392578, 9.23922420654, -0.0151883614296, -0.036905053649, -0.012656967858
0.6164281368255615,-2.1811177124, 0.277727392578, 9.23922420654, -0.0151883614296, -0.036905053649, -0.012656967858
0.6183030605316162,-2.1811177124, 0.277727392578, 9.23922420654, -0.0151883614296, -0.036905053649, -0.012656967858
0.6196410655975342,-2.1811177124, 0.277727392578, 9.23922420654, -0.0151883614296, -0.036905053649, -0.012656967858
0.6212811470031738,-2.1811177124, 0.277727392578, 9.23922420654, -0.0151883614296, -0.036905053649, -0.012656967858
0.6227710247039795,-2.1811177124, 0.277727392578, 9.23922420654, -0.0151883614296, -0.036905053649, -0.012656967858
0.6246681213378906,-2.1811177124, 0.277727392578, 9.23922420654, -0.0151883614296, -0.036905053649, -0.012656967858
0.6262669563293457,-2.1811177124, 0.277727392578, 9.23922420654, -0.0151883614296, -0.036905053649, -0.012656967858
0.627479076385498,-2.1811177124, 0.277727392578, 9.23922420654, -0.0151883614296, -0.036905053649, -0.012656967858
0.6286201477050781,-2.1811177124, 0.277727392578, 9.23922420654, -0.0151883614296, -0.036905053649, -0.012656967858
0.6302821636199951,-2.1811177124, 0.277727392578, 9.23922420654, -0.0151883614296, -0.036905053649, -0.012656967858
0.6327011585235596,-2.1811177124, 0.277727392578, 9.23922420654, -0.0151883614296, -0.036905053649, -0.012656967858
0.6360900402069092,-2.1811177124, 0.277727392578, 9.23922420654, -0.0151883614296, -0.036905053649, -0.012656967858
0.6383740901947021,-2.1811177124, 0.277727392578, 9.23922420654, -0.0151883614296, -0.036905053649, -0.012656967858
0.6402530670166016,-2.1811177124, 0.277727392578, 9.23922420654, -0.0151883614296, -0.036905053649, -0.012656967858
0.6421079635620117,-2.1811177124, 0.277727392578, 9.23922420654, -0.0151883614296, -0.036905053649, -0.012656967858
0.6453080177307129,-2.1811177124, 0.277727392578, 9.23922420654, -0.0151883614296, -0.036905053649, -0.012656967858
0.6463279724121094,-2.1811177124, 0.277727392578, 9.23922420654, -0.0151883614296, -0.036905053649, -0.012656967858
0.6472020149230957,-2.1811177124, 0.277727392578, 9.23922420654, -0.0151883614296, -0.036905053649, -0.012656967858
0.6481800079345703,-2.1811177124, 0.277727392578, 9.23922420654, -0.0151883614296, -0.036905053649, -0.012656967858
0.6490499973297119,-2.1811177124, 0.277727392578, 9.23922420654, -0.0151883614296, -0.036905053649, -0.012656967858
0.6499879360198975,-2.1811177124, 0.277727392578, 9.23922420654, -0.0151883614296, -0.036905053649, -0.012656967858
0.6511099338531494,-2.1811177124, 0.277727392578, 9.23922420654, -0.0151883614296, -0.036905053649, -0.012656967858
0.6526861190795898,-2.1811177124, 0.277727392578, 9.23922420654, -0.0151883614296, -0.036905053649, -0.012656967858
0.6541111469268799,-2.1811177124, 0.277727392578, 9.23922420654, -0.0151883614296, -0.036905053649, -0.012656967858
0.6556429862976074,-2.1811177124, 0.277727392578, 9.23922420654, -0.0151883614296, -0.036905053649, -0.012656967858
0.6571130752563477,-2.1811177124, 0.277727392578, 9.23922420654, -0.0151883614296, -0.036905053649, -0.012656967858
0.65938401222229,-2.1811177124, 0.277727392578, 9.23922420654, -0.0151883614296, -0.036905053649, -0.012656967858
0.6609959602355957,-2.1811177124, 0.277727392578, 9.23922420654, -0.0151883614296, -0.036905053649, -0.012656967858
0.6631090641021729,-2.1811177124, 0.277727392578, 9.23922420654, -0.0151883614296, -0.036905053649, -0.012656967858
0.6649401187896729,-2.1811177124, 0.277727392578, 9.23922420654, -0.0151883614296, -0.036905053649, -0.012656967858
0.6688461303710938,-2.1811177124, 0.277727392578, 9.23922420654, -0.0151883614296, -0.036905053649, -0.012656967858
0.6716451644897461,-2.1811177124, 0.277727392578, 9.23922420654, -0.0151883614296, -0.036905053649, -0.012656967858
0.674793004989624,-2.1811177124, 0.277727392578, 9.23922420654, -0.0151883614296, -0.036905053649, -0.012656967858
0.6762981414794922,-2.1811177124, 0.277727392578, 9.23922420654, -0.0151883614296, -0.036905053649, -0.012656967858
0.6777780055999756,-2.1811177124, 0.277727392578, 9.23922420654, -0.0151883614296, -0.036905053649, -0.012656967858
0.6791231632232666,-2.1811177124, 0.277727392578, 9.23922420654, -0.0151883614296, -0.036905053649, -0.012656967858
0.6806221008300781,-2.1811177124, 0.277727392578, 9.23922420654, -0.0151883614296, -0.036905053649, -0.012656967858
0.6820869445800781,-2.1811177124, 0.277727392578, 9.23922420654, -0.0151883614296, -0.036905053649, -0.012656967858
0.6836111545562744,-2.1811177124, 0.277727392578, 9.23922420654, -0.0151883614296, -0.036905053649, -0.012656967858
0.6848559379577637,-2.1811177124, 0.277727392578, 9.23922420654, -0.0151883614296, -0.036905053649, -0.012656967858
0.6863851547241211,-2.1811177124, 0.277727392578, 9.23922420654, -0.0151883614296, -0.036905053649, -0.012656967858
0.6877901554107666,-2.1811177124, 0.277727392578, 9.23922420654, -0.0151883614296, -0.036905053649, -0.012656967858
0.6890180110931396,-2.1811177124, 0.277727392578, 9.23922420654, -0.0151883614296, -0.036905053649, -0.012656967858
0.6904129981994629,-2.1811177124, 0.277727392578, 9.23922420654, -0.0151883614296, -0.036905053649, -0.012656967858
0.692763090133667,-2.1811177124, 0.277727392578, 9.23922420654, -0.0151883614296, -0.036905053649, -0.012656967858
0.6954860687255859,-2.1811177124, 0.277727392578, 9.23922420654, -0.0151883614296, -0.036905053649, -0.012656967858
0.6988050937652588,-2.1811177124, 0.277727392578, 9.23922420654, -0.0151883614296, -0.036905053649, -0.012656967858
0.7058351039886475,-2.1452046875, 0.124498486328, 9.4762501709, -0.0141225115047, -0.0391699847394, -0.00985911180516
0.7074580192565918,-2.1452046875, 0.124498486328, 9.4762501709, -0.0141225115047, -0.0391699847394, -0.00985911180516
0.7087631225585938,-2.1452046875, 0.124498486328, 9.4762501709, -0.0141225115047, -0.0391699847394, -0.00985911180516
0.7100369930267334,-2.1452046875, 0.124498486328, 9.4762501709, -0.0141225115047, -0.0391699847394, -0.00985911180516
0.7113339900970459,-2.1452046875, 0.124498486328, 9.4762501709, -0.0141225115047, -0.0391699847394, -0.00985911180516
0.7127270698547363,-2.1452046875, 0.124498486328, 9.4762501709, -0.0141225115047, -0.0391699847394, -0.00985911180516
0.7144889831542969,-2.1452046875, 0.124498486328, 9.4762501709, -0.0141225115047, -0.0391699847394, -0.00985911180516
0.7159550189971924,-2.1452046875, 0.124498486328, 9.4762501709, -0.0141225115047, -0.0391699847394, -0.00985911180516
0.7172491550445557,-2.1452046875, 0.124498486328, 9.4762501709, -0.0141225115047, -0.0391699847394, -0.00985911180516
0.7186670303344727,-2.1452046875, 0.124498486328, 9.4762501709, -0.0141225115047, -0.0391699847394, -0.00985911180516
0.7199370861053467,-2.1452046875, 0.124498486328, 9.4762501709, -0.0141225115047, -0.0391699847394, -0.00985911180516
0.7216260433197021,-2.1452046875, 0.124498486328, 9.4762501709, -0.0141225115047, -0.0391699847394, -0.00985911180516
0.7240450382232666,-2.1452046875, 0.124498486328, 9.4762501709, -0.0141225115047, -0.0391699847394, -0.00985911180516
0.72782301902771,-2.1452046875, 0.124498486328, 9.4762501709, -0.0141225115047, -0.0391699847394, -0.00985911180516
0.7300500869750977,-2.1452046875, 0.124498486328, 9.4762501709, -0.0141225115047, -0.0391699847394, -0.00985911180516
0.7326071262359619,-2.1452046875, 0.124498486328, 9.4762501709, -0.0141225115047, -0.0391699847394, -0.00985911180516
0.7344470024108887,-2.1452046875, 0.124498486328, 9.4762501709, -0.0141225115047, -0.0391699847394, -0.00985911180516
0.7358901500701904,-2.1452046875, 0.124498486328, 9.4762501709, -0.0141225115047, -0.0391699847394, -0.00985911180516
0.7375099658966064,-2.1452046875, 0.124498486328, 9.4762501709, -0.0141225115047, -0.0391699847394, -0.00985911180516
0.7386670112609863,-2.1452046875, 0.124498486328, 9.4762501709, -0.0141225115047, -0.0391699847394, -0.00985911180516
0.7395980358123779,-2.1452046875, 0.124498486328, 9.4762501709, -0.0141225115047, -0.0391699847394, -0.00985911180516
0.742401123046875,-2.1452046875, 0.124498486328, 9.4762501709, -0.0141225115047, -0.0391699847394, -0.00985911180516
0.7437820434570312,-2.1452046875, 0.124498486328, 9.4762501709, -0.0141225115047, -0.0391699847394, -0.00985911180516
0.7447011470794678,-2.1452046875, 0.124498486328, 9.4762501709, -0.0141225115047, -0.0391699847394, -0.00985911180516
0.745574951171875,-2.1452046875, 0.124498486328, 9.4762501709, -0.0141225115047, -0.0391699847394, -0.00985911180516
0.7465400695800781,-2.1452046875, 0.124498486328, 9.4762501709, -0.0141225115047, -0.0391699847394, -0.00985911180516
0.7474880218505859,-2.1452046875, 0.124498486328, 9.4762501709, -0.0141225115047, -0.0391699847394, -0.00985911180516
0.7485461235046387,-2.1452046875, 0.124498486328, 9.4762501709, -0.0141225115047, -0.0391699847394, -0.00985911180516
0.7495839595794678,-2.1452046875, 0.124498486328, 9.4762501709, -0.0141225115047, -0.0391699847394, -0.00985911180516
0.7504720687866211,-2.1452046875, 0.124498486328, 9.4762501709, -0.0141225115047, -0.0391699847394, -0.00985911180516
0.7512719631195068,-2.1452046875, 0.124498486328, 9.4762501709, -0.0141225115047, -0.0391699847394, -0.00985911180516
0.752108097076416,-2.1452046875, 0.124498486328, 9.4762501709, -0.0141225115047, -0.0391699847394, -0.00985911180516
0.7534170150756836,-2.1452046875, 0.124498486328, 9.4762501709, -0.0141225115047, -0.0391699847394, -0.00985911180516
0.7547450065612793,-2.1452046875, 0.124498486328, 9.4762501709, -0.0141225115047, -0.0391699847394, -0.00985911180516
0.7579591274261475,-2.1452046875, 0.124498486328, 9.4762501709, -0.0141225115047, -0.0391699847394, -0.00985911180516
0.7603890895843506,-2.1452046875, 0.124498486328, 9.4762501709, -0.0141225115047, -0.0391699847394, -0.00985911180516
0.7629930973052979,-2.1452046875, 0.124498486328, 9.4762501709, -0.0141225115047, -0.0391699847394, -0.00985911180516
0.7646050453186035,-2.1452046875, 0.124498486328, 9.4762501709, -0.0141225115047, -0.0391699847394, -0.00985911180516
0.765571117401123,-2.1452046875, 0.124498486328, 9.4762501709, -0.0141225115047, -0.0391699847394, -0.00985911180516
0.7664530277252197,-2.1452046875, 0.124498486328, 9.4762501709, -0.0141225115047, -0.0391699847394, -0.00985911180516
0.7674980163574219,-2.1452046875, 0.124498486328, 9.4762501709, -0.0141225115047, -0.0391699847394, -0.00985911180516
0.7684710025787354,-2.1452046875, 0.124498486328, 9.4762501709, -0.0141225115047, -0.0391699847394, -0.00985911180516
0.7693231105804443,-2.1452046875, 0.124498486328, 9.4762501709, -0.0141225115047, -0.0391699847394, -0.00985911180516
0.7701530456542969,-2.1452046875, 0.124498486328, 9.4762501709, -0.0141225115047, -0.0391699847394, -0.00985911180516
0.7709810733795166,-2.1452046875, 0.124498486328, 9.4762501709, -0.0141225115047, -0.0391699847394, -0.00985911180516
0.7719581127166748,-2.1452046875, 0.124498486328, 9.4762501709, -0.0141225115047, -0.0391699847394, -0.00985911180516
0.7730879783630371,-2.1452046875, 0.124498486328, 9.4762501709, -0.0141225115047, -0.0391699847394, -0.00985911180516
0.7740709781646729,-2.1452046875, 0.124498486328, 9.4762501709, -0.0141225115047, -0.0391699847394, -0.00985911180516
0.7754881381988525,-2.1452046875, 0.124498486328, 9.4762501709, -0.0141225115047, -0.0391699847394, -0.00985911180516
0.7771041393280029,-2.1452046875, 0.124498486328, 9.4762501709, -0.0141225115047, -0.0391699847394, -0.00985911180516
0.7788181304931641,-2.1452046875, 0.124498486328, 9.4762501709, -0.0141225115047, -0.0391699847394, -0.00985911180516
0.7803499698638916,-2.1452046875, 0.124498486328, 9.4762501709, -0.0141225115047, -0.0391699847394, -0.00985911180516
0.7816200256347656,-2.1452046875, 0.124498486328, 9.4762501709, -0.0141225115047, -0.0391699847394, -0.00985911180516
0.7830550670623779,-2.1452046875, 0.124498486328, 9.4762501709, -0.0141225115047, -0.0391699847394, -0.00985911180516
0.7844300270080566,-2.1452046875, 0.124498486328, 9.4762501709, -0.0141225115047, -0.0391699847394, -0.00985911180516
0.7861390113830566,-2.1452046875, 0.124498486328, 9.4762501709, -0.0141225115047, -0.0391699847394, -0.00985911180516
0.7879631519317627,-2.1452046875, 0.124498486328, 9.4762501709, -0.0141225115047, -0.0391699847394, -0.00985911180516
0.7914149761199951,-2.1452046875, 0.124498486328, 9.4762501709, -0.0141225115047, -0.0391699847394, -0.00985911180516
0.7952311038970947,-2.1452046875, 0.124498486328, 9.4762501709, -0.0141225115047, -0.0391699847394, -0.00985911180516
0.7983109951019287,-2.1452046875, 0.124498486328, 9.4762501709, -0.0141225115047, -0.0391699847394, -0.00985911180516
0.8021810054779053,-2.1452046875, 0.124498486328, 9.4762501709, -0.0141225115047, -0.0391699847394, -0.00985911180516
0.8060140609741211,-2.1811177124, 0.0933738647461, 9.28710823975, -0.0153215926702, -0.0385038285364, -0.0111914242113
0.8073489665985107,-2.1811177124, 0.0933738647461, 9.28710823975, -0.0153215926702, -0.0385038285364, -0.0111914242113
0.808596134185791,-2.1811177124, 0.0933738647461, 9.28710823975, -0.0153215926702, -0.0385038285364, -0.0111914242113
0.8098530769348145,-2.1811177124, 0.0933738647461, 9.28710823975, -0.0153215926702, -0.0385038285364, -0.0111914242113
0.811190128326416,-2.1811177124, 0.0933738647461, 9.28710823975, -0.0153215926702, -0.0385038285364, -0.0111914242113
0.8124470710754395,-2.1811177124, 0.0933738647461, 9.28710823975, -0.0153215926702, -0.0385038285364, -0.0111914242113
0.8141920566558838,-2.1811177124, 0.0933738647461, 9.28710823975, -0.0153215926702, -0.0385038285364, -0.0111914242113
0.8163900375366211,-2.1811177124, 0.0933738647461, 9.28710823975, -0.0153215926702, -0.0385038285364, -0.0111914242113
0.819843053817749,-2.1811177124, 0.0933738647461, 9.28710823975, -0.0153215926702, -0.0385038285364, -0.0111914242113
0.8234000205993652,-2.1811177124, 0.0933738647461, 9.28710823975, -0.0153215926702, -0.0385038285364, -0.0111914242113
0.8254499435424805,-2.1811177124, 0.0933738647461, 9.28710823975, -0.0153215926702, -0.0385038285364, -0.0111914242113
0.8269009590148926,-2.1811177124, 0.0933738647461, 9.28710823975, -0.0153215926702, -0.0385038285364, -0.0111914242113
0.8283131122589111,-2.1811177124, 0.0933738647461, 9.28710823975, -0.0153215926702, -0.0385038285364, -0.0111914242113
0.8297481536865234,-2.1811177124, 0.0933738647461, 9.28710823975, -0.0153215926702, -0.0385038285364, -0.0111914242113
0.8311481475830078,-2.1811177124, 0.0933738647461, 9.28710823975, -0.0153215926702, -0.0385038285364, -0.0111914242113
0.8330211639404297,-2.1811177124, 0.0933738647461, 9.28710823975, -0.0153215926702, -0.0385038285364, -0.0111914242113
0.8344781398773193,-2.1811177124, 0.0933738647461, 9.28710823975, -0.0153215926702, -0.0385038285364, -0.0111914242113
0.8361859321594238,-2.1811177124, 0.0933738647461, 9.28710823975, -0.0153215926702, -0.0385038285364, -0.0111914242113
0.8376460075378418,-2.1811177124, 0.0933738647461, 9.28710823975, -0.0153215926702, -0.0385038285364, -0.0111914242113
0.8391151428222656,-2.1811177124, 0.0933738647461, 9.28710823975, -0.0153215926702, -0.0385038285364, -0.0111914242113
0.8433971405029297,-2.1811177124, 0.0933738647461, 9.28710823975, -0.0153215926702, -0.0385038285364, -0.0111914242113
0.8452060222625732,-2.1811177124, 0.0933738647461, 9.28710823975, -0.0153215926702, -0.0385038285364, -0.0111914242113
0.8467569351196289,-2.1811177124, 0.0933738647461, 9.28710823975, -0.0153215926702, -0.0385038285364, -0.0111914242113
0.848207950592041,-2.1811177124, 0.0933738647461, 9.28710823975, -0.0153215926702, -0.0385038285364, -0.0111914242113
0.8497920036315918,-2.1811177124, 0.0933738647461, 9.28710823975, -0.0153215926702, -0.0385038285364, -0.0111914242113
0.8513281345367432,-2.1811177124, 0.0933738647461, 9.28710823975, -0.0153215926702, -0.0385038285364, -0.0111914242113
0.8549480438232422,-2.1811177124, 0.0933738647461, 9.28710823975, -0.0153215926702, -0.0385038285364, -0.0111914242113
0.8575761318206787,-2.1811177124, 0.0933738647461, 9.28710823975, -0.0153215926702, -0.0385038285364, -0.0111914242113
0.8611490726470947,-2.1811177124, 0.0933738647461, 9.28710823975, -0.0153215926702, -0.0385038285364, -0.0111914242113
0.8626840114593506,-2.1811177124, 0.0933738647461, 9.28710823975, -0.0153215926702, -0.0385038285364, -0.0111914242113
0.8638241291046143,-2.1811177124, 0.0933738647461, 9.28710823975, -0.0153215926702, -0.0385038285364, -0.0111914242113
0.864732027053833,-2.1811177124, 0.0933738647461, 9.28710823975, -0.0153215926702, -0.0385038285364, -0.0111914242113
0.8656630516052246,-2.1811177124, 0.0933738647461, 9.28710823975, -0.0153215926702, -0.0385038285364, -0.0111914242113
0.8665120601654053,-2.1811177124, 0.0933738647461, 9.28710823975, -0.0153215926702, -0.0385038285364, -0.0111914242113
0.8675069808959961,-2.1811177124, 0.0933738647461, 9.28710823975, -0.0153215926702, -0.0385038285364, -0.0111914242113
0.8686380386352539,-2.1811177124, 0.0933738647461, 9.28710823975, -0.0153215926702, -0.0385038285364, -0.0111914242113
0.8696770668029785,-2.1811177124, 0.0933738647461, 9.28710823975, -0.0153215926702, -0.0385038285364, -0.0111914242113
0.8705551624298096,-2.1811177124, 0.0933738647461, 9.28710823975, -0.0153215926702, -0.0385038285364, -0.0111914242113
0.8715610504150391,-2.1811177124, 0.0933738647461, 9.28710823975, -0.0153215926702, -0.0385038285364, -0.0111914242113
0.8728470802307129,-2.1811177124, 0.0933738647461, 9.28710823975, -0.0153215926702, -0.0385038285364, -0.0111914242113
0.874021053314209,-2.1811177124, 0.0933738647461, 9.28710823975, -0.0153215926702, -0.0385038285364, -0.0111914242113
0.8753180503845215,-2.1811177124, 0.0933738647461, 9.28710823975, -0.0153215926702, -0.0385038285364, -0.0111914242113
0.8768539428710938,-2.1811177124, 0.0933738647461, 9.28710823975, -0.0153215926702, -0.0385038285364, -0.0111914242113
0.8785080909729004,-2.1811177124, 0.0933738647461, 9.28710823975, -0.0153215926702, -0.0385038285364, -0.0111914242113
0.8802111148834229,-2.1811177124, 0.0933738647461, 9.28710823975, -0.0153215926702, -0.0385038285364, -0.0111914242113
0.8818249702453613,-2.1811177124, 0.0933738647461, 9.28710823975, -0.0153215926702, -0.0385038285364, -0.0111914242113
0.8838479518890381,-2.1811177124, 0.0933738647461, 9.28710823975, -0.0153215926702, -0.0385038285364, -0.0111914242113
0.887706995010376,-2.1811177124, 0.0933738647461, 9.28710823975, -0.0153215926702, -0.0385038285364, -0.0111914242113
0.8902561664581299,-2.1811177124, 0.0933738647461, 9.28710823975, -0.0153215926702, -0.0385038285364, -0.0111914242113
0.8933219909667969,-2.1811177124, 0.0933738647461, 9.28710823975, -0.0153215926702, -0.0385038285364, -0.0111914242113
0.8951489925384521,-2.1811177124, 0.0933738647461, 9.28710823975, -0.0153215926702, -0.0385038285364, -0.0111914242113
0.8968579769134521,-2.1811177124, 0.0933738647461, 9.28710823975, -0.0153215926702, -0.0385038285364, -0.0111914242113
0.9008049964904785,-2.1811177124, 0.0933738647461, 9.28710823975, -0.0153215926702, -0.0385038285364, -0.0111914242113
0.905177116394043,-2.205059729, 0.114921679688, 9.41160672607, -0.0155880551514, -0.0371715161303, -0.00999234304577
0.9066071510314941,-2.205059729, 0.114921679688, 9.41160672607, -0.0155880551514, -0.0371715161303, -0.00999234304577
0.9081881046295166,-2.205059729, 0.114921679688, 9.41160672607, -0.0155880551514, -0.0371715161303, -0.00999234304577
0.910189151763916,-2.205059729, 0.114921679688, 9.41160672607, -0.0155880551514, -0.0371715161303, -0.00999234304577
0.9141860008239746,-2.205059729, 0.114921679688, 9.41160672607, -0.0155880551514, -0.0371715161303, -0.00999234304577
0.9166660308837891,-2.205059729, 0.114921679688, 9.41160672607, -0.0155880551514, -0.0371715161303, -0.00999234304577
0.9192280769348145,-2.205059729, 0.114921679688, 9.41160672607, -0.0155880551514, -0.0371715161303, -0.00999234304577
0.9205939769744873,-2.205059729, 0.114921679688, 9.41160672607, -0.0155880551514, -0.0371715161303, -0.00999234304577
0.9219191074371338,-2.205059729, 0.114921679688, 9.41160672607, -0.0155880551514, -0.0371715161303, -0.00999234304577
0.9237101078033447,-2.205059729, 0.114921679688, 9.41160672607, -0.0155880551514, -0.0371715161303, -0.00999234304577
0.9252679347991943,-2.205059729, 0.114921679688, 9.41160672607, -0.0155880551514, -0.0371715161303, -0.00999234304577
0.9267339706420898,-2.205059729, 0.114921679688, 9.41160672607, -0.0155880551514, -0.0371715161303, -0.00999234304577
0.9280970096588135,-2.205059729, 0.114921679688, 9.41160672607, -0.0155880551514, -0.0371715161303, -0.00999234304577
0.9295549392700195,-2.205059729, 0.114921679688, 9.41160672607, -0.0155880551514, -0.0371715161303, -0.00999234304577
0.9310929775238037,-2.205059729, 0.114921679688, 9.41160672607, -0.0155880551514, -0.0371715161303, -0.00999234304577
0.9324159622192383,-2.205059729, 0.114921679688, 9.41160672607, -0.0155880551514, -0.0371715161303, -0.00999234304577
0.9337871074676514,-2.205059729, 0.114921679688, 9.41160672607, -0.0155880551514, -0.0371715161303, -0.00999234304577
0.9348740577697754,-2.205059729, 0.114921679688, 9.41160672607, -0.0155880551514, -0.0371715161303, -0.00999234304577
0.9358949661254883,-2.205059729, 0.114921679688, 9.41160672607, -0.0155880551514, -0.0371715161303, -0.00999234304577
0.9368979930877686,-2.205059729, 0.114921679688, 9.41160672607, -0.0155880551514, -0.0371715161303, -0.00999234304577
0.93778395652771,-2.205059729, 0.114921679688, 9.41160672607, -0.0155880551514, -0.0371715161303, -0.00999234304577
0.9387199878692627,-2.205059729, 0.114921679688, 9.41160672607, -0.0155880551514, -0.0371715161303, -0.00999234304577
0.9401149749755859,-2.205059729, 0.114921679688, 9.41160672607, -0.0155880551514, -0.0371715161303, -0.00999234304577
0.9448390007019043,-2.205059729, 0.114921679688, 9.41160672607, -0.0155880551514, -0.0371715161303, -0.00999234304577
0.947674036026001,-2.205059729, 0.114921679688, 9.41160672607, -0.0155880551514, -0.0371715161303, -0.00999234304577
0.9497971534729004,-2.205059729, 0.114921679688, 9.41160672607, -0.0155880551514, -0.0371715161303, -0.00999234304577
0.9522149562835693,-2.205059729, 0.114921679688, 9.41160672607, -0.0155880551514, -0.0371715161303, -0.00999234304577
0.9541571140289307,-2.205059729, 0.114921679688, 9.41160672607, -0.0155880551514, -0.0371715161303, -0.00999234304577
0.9556691646575928,-2.205059729, 0.114921679688, 9.41160672607, -0.0155880551514, -0.0371715161303, -0.00999234304577
0.9571819305419922,-2.205059729, 0.114921679688, 9.41160672607, -0.0155880551514, -0.0371715161303, -0.00999234304577
0.9591209888458252,-2.205059729, 0.114921679688, 9.41160672607, -0.0155880551514, -0.0371715161303, -0.00999234304577
0.9607610702514648,-2.205059729, 0.114921679688, 9.41160672607, -0.0155880551514, -0.0371715161303, -0.00999234304577
0.9624221324920654,-2.205059729, 0.114921679688, 9.41160672607, -0.0155880551514, -0.0371715161303, -0.00999234304577
0.9640200138092041,-2.205059729, 0.114921679688, 9.41160672607, -0.0155880551514, -0.0371715161303, -0.00999234304577
0.9654300212860107,-2.205059729, 0.114921679688, 9.41160672607, -0.0155880551514, -0.0371715161303, -0.00999234304577
0.9667191505432129,-2.205059729, 0.114921679688, 9.41160672607, -0.0155880551514, -0.0371715161303, -0.00999234304577
0.9679639339447021,-2.205059729, 0.114921679688, 9.41160672607, -0.0155880551514, -0.0371715161303, -0.00999234304577
0.9695141315460205,-2.205059729, 0.114921679688, 9.41160672607, -0.0155880551514, -0.0371715161303, -0.00999234304577
0.9713361263275146,-2.205059729, 0.114921679688, 9.41160672607, -0.0155880551514, -0.0371715161303, -0.00999234304577
0.9754581451416016,-2.205059729, 0.114921679688, 9.41160672607, -0.0155880551514, -0.0371715161303, -0.00999234304577
0.9779200553894043,-2.205059729, 0.114921679688, 9.41160672607, -0.0155880551514, -0.0371715161303, -0.00999234304577
0.9805231094360352,-2.205059729, 0.114921679688, 9.41160672607, -0.0155880551514, -0.0371715161303, -0.00999234304577
0.9827780723571777,-2.205059729, 0.114921679688, 9.41160672607, -0.0155880551514, -0.0371715161303, -0.00999234304577
0.9842309951782227,-2.205059729, 0.114921679688, 9.41160672607, -0.0155880551514, -0.0371715161303, -0.00999234304577
0.985490083694458,-2.205059729, 0.114921679688, 9.41160672607, -0.0155880551514, -0.0371715161303, -0.00999234304577
0.9869260787963867,-2.205059729, 0.114921679688, 9.41160672607, -0.0155880551514, -0.0371715161303, -0.00999234304577
0.9883911609649658,-2.205059729, 0.114921679688, 9.41160672607, -0.0155880551514, -0.0371715161303, -0.00999234304577
0.9900720119476318,-2.205059729, 0.114921679688, 9.41160672607, -0.0155880551514, -0.0371715161303, -0.00999234304577
0.9912970066070557,-2.205059729, 0.114921679688, 9.41160672607, -0.0155880551514, -0.0371715161303, -0.00999234304577
0.9927949905395508,-2.205059729, 0.114921679688, 9.41160672607, -0.0155880551514, -0.0371715161303, -0.00999234304577
0.9947099685668945,-2.205059729, 0.114921679688, 9.41160672607, -0.0155880551514, -0.0371715161303, -0.00999234304577
0.9964160919189453,-2.205059729, 0.114921679688, 9.41160672607, -0.0155880551514, -0.0371715161303, -0.00999234304577
0.9979181289672852,-2.205059729, 0.114921679688, 9.41160672607, -0.0155880551514, -0.0371715161303, -0.00999234304577
0.9994909763336182,-2.205059729, 0.114921679688, 9.41160672607, -0.0155880551514, -0.0371715161303, -0.00999234304577
1.001220941543579,-2.205059729, 0.114921679688, 9.41160672607, -0.0155880551514, -0.0371715161303, -0.00999234304577
1.0075750350952148,-1.99915838623, 0.172382519531, 9.36372269287, -0.0134563553016, -0.0398361409425, -0.00932618684272
1.0102131366729736,-1.99915838623, 0.172382519531, 9.36372269287, -0.0134563553016, -0.0398361409425, -0.00932618684272
1.0130081176757812,-1.99915838623, 0.172382519531, 9.36372269287, -0.0134563553016, -0.0398361409425, -0.00932618684272
1.0148630142211914,-1.99915838623, 0.172382519531, 9.36372269287, -0.0134563553016, -0.0398361409425, -0.00932618684272
1.0187580585479736,-1.99915838623, 0.172382519531, 9.36372269287, -0.0134563553016, -0.0398361409425, -0.00932618684272
1.0202460289001465,-1.99915838623, 0.172382519531, 9.36372269287, -0.0134563553016, -0.0398361409425, -0.00932618684272
1.0216779708862305,-1.99915838623, 0.172382519531, 9.36372269287, -0.0134563553016, -0.0398361409425, -0.00932618684272
1.023648977279663,-1.99915838623, 0.172382519531, 9.36372269287, -0.0134563553016, -0.0398361409425, -0.00932618684272
1.025244951248169,-1.99915838623, 0.172382519531, 9.36372269287, -0.0134563553016, -0.0398361409425, -0.00932618684272
1.026766061782837,-1.99915838623, 0.172382519531, 9.36372269287, -0.0134563553016, -0.0398361409425, -0.00932618684272
1.028167963027954,-1.99915838623, 0.172382519531, 9.36372269287, -0.0134563553016, -0.0398361409425, -0.00932618684272
1.0295281410217285,-1.99915838623, 0.172382519531, 9.36372269287, -0.0134563553016, -0.0398361409425, -0.00932618684272
1.031325101852417,-1.99915838623, 0.172382519531, 9.36372269287, -0.0134563553016, -0.0398361409425, -0.00932618684272
1.0336840152740479,-1.99915838623, 0.172382519531, 9.36372269287, -0.0134563553016, -0.0398361409425, -0.00932618684272
1.0372951030731201,-1.99915838623, 0.172382519531, 9.36372269287, -0.0134563553016, -0.0398361409425, -0.00932618684272
1.039992094039917,-1.99915838623, 0.172382519531, 9.36372269287, -0.0134563553016, -0.0398361409425, -0.00932618684272
1.0444660186767578,-1.99915838623, 0.172382519531, 9.36372269287, -0.0134563553016, -0.0398361409425, -0.00932618684272
1.0471470355987549,-1.99915838623, 0.172382519531, 9.36372269287, -0.0134563553016, -0.0398361409425, -0.00932618684272
1.0490729808807373,-1.99915838623, 0.172382519531, 9.36372269287, -0.0134563553016, -0.0398361409425, -0.00932618684272
1.050497055053711,-1.99915838623, 0.172382519531, 9.36372269287, -0.0134563553016, -0.0398361409425, -0.00932618684272
1.051934003829956,-1.99915838623, 0.172382519531, 9.36372269287, -0.0134563553016, -0.0398361409425, -0.00932618684272
1.0534250736236572,-1.99915838623, 0.172382519531, 9.36372269287, -0.0134563553016, -0.0398361409425, -0.00932618684272
1.0544490814208984,-1.99915838623, 0.172382519531, 9.36372269287, -0.0134563553016, -0.0398361409425, -0.00932618684272
1.0553791522979736,-1.99915838623, 0.172382519531, 9.36372269287, -0.0134563553016, -0.0398361409425, -0.00932618684272
1.056312084197998,-1.99915838623, 0.172382519531, 9.36372269287, -0.0134563553016, -0.0398361409425, -0.00932618684272
1.057847023010254,-1.99915838623, 0.172382519531, 9.36372269287, -0.0134563553016, -0.0398361409425, -0.00932618684272
1.0593960285186768,-1.99915838623, 0.172382519531, 9.36372269287, -0.0134563553016, -0.0398361409425, -0.00932618684272
1.0607430934906006,-1.99915838623, 0.172382519531, 9.36372269287, -0.0134563553016, -0.0398361409425, -0.00932618684272
1.0620651245117188,-1.99915838623, 0.172382519531, 9.36372269287, -0.0134563553016, -0.0398361409425, -0.00932618684272
1.0639700889587402,-1.99915838623, 0.172382519531, 9.36372269287, -0.0134563553016, -0.0398361409425, -0.00932618684272
1.0665221214294434,-1.99915838623, 0.172382519531, 9.36372269287, -0.0134563553016, -0.0398361409425, -0.00932618684272
1.0690360069274902,-1.99915838623, 0.172382519531, 9.36372269287, -0.0134563553016, -0.0398361409425, -0.00932618684272
1.0710270404815674,-1.99915838623, 0.172382519531, 9.36372269287, -0.0134563553016, -0.0398361409425, -0.00932618684272
1.0735771656036377,-1.99915838623, 0.172382519531, 9.36372269287, -0.0134563553016, -0.0398361409425, -0.00932618684272
1.0747640132904053,-1.99915838623, 0.172382519531, 9.36372269287, -0.0134563553016, -0.0398361409425, -0.00932618684272
1.0759639739990234,-1.99915838623, 0.172382519531, 9.36372269287, -0.0134563553016, -0.0398361409425, -0.00932618684272
1.0771870613098145,-1.99915838623, 0.172382519531, 9.36372269287, -0.0134563553016, -0.0398361409425, -0.00932618684272
1.0784571170806885,-1.99915838623, 0.172382519531, 9.36372269287, -0.0134563553016, -0.0398361409425, -0.00932618684272
1.0794010162353516,-1.99915838623, 0.172382519531, 9.36372269287, -0.0134563553016, -0.0398361409425, -0.00932618684272
1.0804669857025146,-1.99915838623, 0.172382519531, 9.36372269287, -0.0134563553016, -0.0398361409425, -0.00932618684272
1.0821170806884766,-1.99915838623, 0.172382519531, 9.36372269287, -0.0134563553016, -0.0398361409425, -0.00932618684272
1.0837650299072266,-1.99915838623, 0.172382519531, 9.36372269287, -0.0134563553016, -0.0398361409425, -0.00932618684272
1.085278034210205,-1.99915838623, 0.172382519531, 9.36372269287, -0.0134563553016, -0.0398361409425, -0.00932618684272
1.0869741439819336,-1.99915838623, 0.172382519531, 9.36372269287, -0.0134563553016, -0.0398361409425, -0.00932618684272
1.088318109512329,-1.99915838623, 0.172382519531, 9.36372269287, -0.0134563553016, -0.0398361409425, -0.00932618684272
1.0899851322174072,-1.99915838623, 0.172382519531, 9.36372269287, -0.0134563553016, -0.0398361409425, -0.00932618684272
1.091318130493164,-1.99915838623, 0.172382519531, 9.36372269287, -0.0134563553016, -0.0398361409425, -0.00932618684272
1.0937981605529785,-1.99915838623, 0.172382519531, 9.36372269287, -0.0134563553016, -0.0398361409425, -0.00932618684272
1.0961649417877197,-1.99915838623, 0.172382519531, 9.36372269287, -0.0134563553016, -0.0398361409425, -0.00932618684272
1.1018900871276855,-1.99915838623, 0.172382519531, 9.36372269287, -0.0134563553016, -0.0398361409425, -0.00932618684272
1.1078619956970215,-2.23139594727, 0.0622492431641, 9.21528218994, -0.0143889739859, -0.0406355283861, -0.0101255742864
1.1106410026550293,-2.23139594727, 0.0622492431641, 9.21528218994, -0.0143889739859, -0.0406355283861, -0.0101255742864
1.1132309436798096,-2.23139594727, 0.0622492431641, 9.21528218994, -0.0143889739859, -0.0406355283861, -0.0101255742864
1.1147680282592773,-2.23139594727, 0.0622492431641, 9.21528218994, -0.0143889739859, -0.0406355283861, -0.0101255742864
1.1162891387939453,-2.23139594727, 0.0622492431641, 9.21528218994, -0.0143889739859, -0.0406355283861, -0.0101255742864
1.117656946182251,-2.23139594727, 0.0622492431641, 9.21528218994, -0.0143889739859, -0.0406355283861, -0.0101255742864
1.1190409660339355,-2.23139594727, 0.0622492431641, 9.21528218994, -0.0143889739859, -0.0406355283861, -0.0101255742864
1.1204149723052979,-2.23139594727, 0.0622492431641, 9.21528218994, -0.0143889739859, -0.0406355283861, -0.0101255742864
1.1220650672912598,-2.23139594727, 0.0622492431641, 9.21528218994, -0.0143889739859, -0.0406355283861, -0.0101255742864
1.1245441436767578,-2.23139594727, 0.0622492431641, 9.21528218994, -0.0143889739859, -0.0406355283861, -0.0101255742864
1.128303050994873,-2.23139594727, 0.0622492431641, 9.21528218994, -0.0143889739859, -0.0406355283861, -0.0101255742864
1.1311800479888916,-2.23139594727, 0.0622492431641, 9.21528218994, -0.0143889739859, -0.0406355283861, -0.0101255742864
1.1338419914245605,-2.23139594727, 0.0622492431641, 9.21528218994, -0.0143889739859, -0.0406355283861, -0.0101255742864
1.1355259418487549,-2.23139594727, 0.0622492431641, 9.21528218994, -0.0143889739859, -0.0406355283861, -0.0101255742864
1.1370840072631836,-2.23139594727, 0.0622492431641, 9.21528218994, -0.0143889739859, -0.0406355283861, -0.0101255742864
1.138566017150879,-2.23139594727, 0.0622492431641, 9.21528218994, -0.0143889739859, -0.0406355283861, -0.0101255742864
1.1401691436767578,-2.23139594727, 0.0622492431641, 9.21528218994, -0.0143889739859, -0.0406355283861, -0.0101255742864
1.144547939300537,-2.23139594727, 0.0622492431641, 9.21528218994, -0.0143889739859, -0.0406355283861, -0.0101255742864
1.1463000774383545,-2.23139594727, 0.0622492431641, 9.21528218994, -0.0143889739859, -0.0406355283861, -0.0101255742864
1.1479170322418213,-2.23139594727, 0.0622492431641, 9.21528218994, -0.0143889739859, -0.0406355283861, -0.0101255742864
1.1494860649108887,-2.23139594727, 0.0622492431641, 9.21528218994, -0.0143889739859, -0.0406355283861, -0.0101255742864
1.1509449481964111,-2.23139594727, 0.0622492431641, 9.21528218994, -0.0143889739859, -0.0406355283861, -0.0101255742864
1.1523900032043457,-2.23139594727, 0.0622492431641, 9.21528218994, -0.0143889739859, -0.0406355283861, -0.0101255742864
1.1544289588928223,-2.23139594727, 0.0622492431641, 9.21528218994, -0.0143889739859, -0.0406355283861, -0.0101255742864
1.1565821170806885,-2.23139594727, 0.0622492431641, 9.21528218994, -0.0143889739859, -0.0406355283861, -0.0101255742864
1.1614601612091064,-2.23139594727, 0.0622492431641, 9.21528218994, -0.0143889739859, -0.0406355283861, -0.0101255742864
1.165018081665039,-2.23139594727, 0.0622492431641, 9.21528218994, -0.0143889739859, -0.0406355283861, -0.0101255742864
1.167262077331543,-2.23139594727, 0.0622492431641, 9.21528218994, -0.0143889739859, -0.0406355283861, -0.0101255742864
1.168571949005127,-2.23139594727, 0.0622492431641, 9.21528218994, -0.0143889739859, -0.0406355283861, -0.0101255742864
1.1699600219726562,-2.23139594727, 0.0622492431641, 9.21528218994, -0.0143889739859, -0.0406355283861, -0.0101255742864
1.1715941429138184,-2.23139594727, 0.0622492431641, 9.21528218994, -0.0143889739859, -0.0406355283861, -0.0101255742864
1.1732361316680908,-2.23139594727, 0.0622492431641, 9.21528218994, -0.0143889739859, -0.0406355283861, -0.0101255742864
1.1748790740966797,-2.23139594727, 0.0622492431641, 9.21528218994, -0.0143889739859, -0.0406355283861, -0.0101255742864
1.1766071319580078,-2.23139594727, 0.0622492431641, 9.21528218994, -0.0143889739859, -0.0406355283861, -0.0101255742864
1.1779539585113525,-2.23139594727, 0.0622492431641, 9.21528218994, -0.0143889739859, -0.0406355283861, -0.0101255742864
1.1790380477905273,-2.23139594727, 0.0622492431641, 9.21528218994, -0.0143889739859, -0.0406355283861, -0.0101255742864
1.1800179481506348,-2.23139594727, 0.0622492431641, 9.21528218994, -0.0143889739859, -0.0406355283861, -0.0101255742864
1.1811270713806152,-2.23139594727, 0.0622492431641, 9.21528218994, -0.0143889739859, -0.0406355283861, -0.0101255742864
1.1820759773254395,-2.23139594727, 0.0622492431641, 9.21528218994, -0.0143889739859, -0.0406355283861, -0.0101255742864
1.1833810806274414,-2.23139594727, 0.0622492431641, 9.21528218994, -0.0143889739859, -0.0406355283861, -0.0101255742864
1.1846880912780762,-2.23139594727, 0.0622492431641, 9.21528218994, -0.0143889739859, -0.0406355283861, -0.0101255742864
1.186143159866333,-2.23139594727, 0.0622492431641, 9.21528218994, -0.0143889739859, -0.0406355283861, -0.0101255742864
1.187978982925415,-2.23139594727, 0.0622492431641, 9.21528218994, -0.0143889739859, -0.0406355283861, -0.0101255742864
1.1907870769500732,-2.23139594727, 0.0622492431641, 9.21528218994, -0.0143889739859, -0.0406355283861, -0.0101255742864
1.1937339305877686,-2.23139594727, 0.0622492431641, 9.21528218994, -0.0143889739859, -0.0406355283861, -0.0101255742864
1.1964960098266602,-2.23139594727, 0.0622492431641, 9.21528218994, -0.0143889739859, -0.0406355283861, -0.0101255742864
1.2005510330200195,-2.23139594727, 0.0622492431641, 9.21528218994, -0.0143889739859, -0.0406355283861, -0.0101255742864
1.2022440433502197,-2.23139594727, 0.0622492431641, 9.21528218994, -0.0143889739859, -0.0406355283861, -0.0101255742864
1.2042341232299805,-2.23139594727, 0.0622492431641, 9.21528218994, -0.0143889739859, -0.0406355283861, -0.0101255742864
1.2092771530151367,-2.29364519043, 0.100556469727, 9.24401260986, -0.0154548239108, -0.0383705972958, -0.00772741195539
1.2109041213989258,-2.29364519043, 0.100556469727, 9.24401260986, -0.0154548239108, -0.0383705972958, -0.00772741195539
1.2123651504516602,-2.29364519043, 0.100556469727, 9.24401260986, -0.0154548239108, -0.0383705972958, -0.00772741195539
1.2143900394439697,-2.29364519043, 0.100556469727, 9.24401260986, -0.0154548239108, -0.0383705972958, -0.00772741195539
1.216284990310669,-2.29364519043, 0.100556469727, 9.24401260986, -0.0154548239108, -0.0383705972958, -0.00772741195539
1.2191290855407715,-2.29364519043, 0.100556469727, 9.24401260986, -0.0154548239108, -0.0383705972958, -0.00772741195539
1.2221081256866455,-2.29364519043, 0.100556469727, 9.24401260986, -0.0154548239108, -0.0383705972958, -0.00772741195539
1.2260661125183105,-2.29364519043, 0.100556469727, 9.24401260986, -0.0154548239108, -0.0383705972958, -0.00772741195539
1.227653980255127,-2.29364519043, 0.100556469727, 9.24401260986, -0.0154548239108, -0.0383705972958, -0.00772741195539
1.229194164276123,-2.29364519043, 0.100556469727, 9.24401260986, -0.0154548239108, -0.0383705972958, -0.00772741195539
1.2306160926818848,-2.29364519043, 0.100556469727, 9.24401260986, -0.0154548239108, -0.0383705972958, -0.00772741195539
1.2321691513061523,-2.29364519043, 0.100556469727, 9.24401260986, -0.0154548239108, -0.0383705972958, -0.00772741195539
1.234118938446045,-2.29364519043, 0.100556469727, 9.24401260986, -0.0154548239108, -0.0383705972958, -0.00772741195539
1.2356641292572021,-2.29364519043, 0.100556469727, 9.24401260986, -0.0154548239108, -0.0383705972958, -0.00772741195539
1.2372500896453857,-2.29364519043, 0.100556469727, 9.24401260986, -0.0154548239108, -0.0383705972958, -0.00772741195539
1.2390460968017578,-2.29364519043, 0.100556469727, 9.24401260986, -0.0154548239108, -0.0383705972958, -0.00772741195539
1.2407879829406738,-2.29364519043, 0.100556469727, 9.24401260986, -0.0154548239108, -0.0383705972958, -0.00772741195539
1.2426121234893799,-2.29364519043, 0.100556469727, 9.24401260986, -0.0154548239108, -0.0383705972958, -0.00772741195539
1.2474169731140137,-2.29364519043, 0.100556469727, 9.24401260986, -0.0154548239108, -0.0383705972958, -0.00772741195539
1.2509441375732422,-2.29364519043, 0.100556469727, 9.24401260986, -0.0154548239108, -0.0383705972958, -0.00772741195539
1.2540550231933594,-2.29364519043, 0.100556469727, 9.24401260986, -0.0154548239108, -0.0383705972958, -0.00772741195539
1.2569301128387451,-2.29364519043, 0.100556469727, 9.24401260986, -0.0154548239108, -0.0383705972958, -0.00772741195539
1.2589399814605713,-2.29364519043, 0.100556469727, 9.24401260986, -0.0154548239108, -0.0383705972958, -0.00772741195539
1.260633945465088,-2.29364519043, 0.100556469727, 9.24401260986, -0.0154548239108, -0.0383705972958, -0.00772741195539
1.262153148651123,-2.29364519043, 0.100556469727, 9.24401260986, -0.0154548239108, -0.0383705972958, -0.00772741195539
1.2639789581298828,-2.29364519043, 0.100556469727, 9.24401260986, -0.0154548239108, -0.0383705972958, -0.00772741195539
1.2656481266021729,-2.29364519043, 0.100556469727, 9.24401260986, -0.0154548239108, -0.0383705972958, -0.00772741195539
1.2674710750579834,-2.29364519043, 0.100556469727, 9.24401260986, -0.0154548239108, -0.0383705972958, -0.00772741195539
1.2689530849456787,-2.29364519043, 0.100556469727, 9.24401260986, -0.0154548239108, -0.0383705972958, -0.00772741195539
1.2705590724945068,-2.29364519043, 0.100556469727, 9.24401260986, -0.0154548239108, -0.0383705972958, -0.00772741195539
1.2724051475524902,-2.29364519043, 0.100556469727, 9.24401260986, -0.0154548239108, -0.0383705972958, -0.00772741195539
1.274919033050537,-2.29364519043, 0.100556469727, 9.24401260986, -0.0154548239108, -0.0383705972958, -0.00772741195539
1.27760910987854,-2.29364519043, 0.100556469727, 9.24401260986, -0.0154548239108, -0.0383705972958, -0.00772741195539
1.2806639671325684,-2.29364519043, 0.100556469727, 9.24401260986, -0.0154548239108, -0.0383705972958, -0.00772741195539
1.2837600708007812,-2.29364519043, 0.100556469727, 9.24401260986, -0.0154548239108, -0.0383705972958, -0.00772741195539
1.286303997039795,-2.29364519043, 0.100556469727, 9.24401260986, -0.0154548239108, -0.0383705972958, -0.00772741195539
1.2890369892120361,-2.29364519043, 0.100556469727, 9.24401260986, -0.0154548239108, -0.0383705972958, -0.00772741195539
1.2909350395202637,-2.29364519043, 0.100556469727, 9.24401260986, -0.0154548239108, -0.0383705972958, -0.00772741195539
1.2925641536712646,-2.29364519043, 0.100556469727, 9.24401260986, -0.0154548239108, -0.0383705972958, -0.00772741195539
1.2947320938110352,-2.29364519043, 0.100556469727, 9.24401260986, -0.0154548239108, -0.0383705972958, -0.00772741195539
1.2961959838867188,-2.29364519043, 0.100556469727, 9.24401260986, -0.0154548239108, -0.0383705972958, -0.00772741195539
1.300441026687622,-2.29364519043, 0.100556469727, 9.24401260986, -0.0154548239108, -0.0383705972958, -0.00772741195539
1.305739164352417,-2.27688577881, 0.131681091309, 9.26795462646, -0.0154548239108, -0.0394364472206, -0.0115911179331
1.3082029819488525,-2.27688577881, 0.131681091309, 9.26795462646, -0.0154548239108, -0.0394364472206, -0.0115911179331
1.3107340335845947,-2.27688577881, 0.131681091309, 9.26795462646, -0.0154548239108, -0.0394364472206, -0.0115911179331
1.3135530948638916,-2.27688577881, 0.131681091309, 9.26795462646, -0.0154548239108, -0.0394364472206, -0.0115911179331
1.3157539367675781,-2.27688577881, 0.131681091309, 9.26795462646, -0.0154548239108, -0.0394364472206, -0.0115911179331
1.317291021347046,-2.27688577881, 0.131681091309, 9.26795462646, -0.0154548239108, -0.0394364472206, -0.0115911179331
1.318850040435791,-2.27688577881, 0.131681091309, 9.26795462646, -0.0154548239108, -0.0394364472206, -0.0115911179331
1.320646047592163,-2.27688577881, 0.131681091309, 9.26795462646, -0.0154548239108, -0.0394364472206, -0.0115911179331
1.3221261501312256,-2.27688577881, 0.131681091309, 9.26795462646, -0.0154548239108, -0.0394364472206, -0.0115911179331
1.3241040706634521,-2.27688577881, 0.131681091309, 9.26795462646, -0.0154548239108, -0.0394364472206, -0.0115911179331
1.3258600234985352,-2.27688577881, 0.131681091309, 9.26795462646, -0.0154548239108, -0.0394364472206, -0.0115911179331
1.3274590969085693,-2.27688577881, 0.131681091309, 9.26795462646, -0.0154548239108, -0.0394364472206, -0.0115911179331
1.3289811611175537,-2.27688577881, 0.131681091309, 9.26795462646, -0.0154548239108, -0.0394364472206, -0.0115911179331
1.3304309844970703,-2.27688577881, 0.131681091309, 9.26795462646, -0.0154548239108, -0.0394364472206, -0.0115911179331
1.3319201469421387,-2.27688577881, 0.131681091309, 9.26795462646, -0.0154548239108, -0.0394364472206, -0.0115911179331
1.3340959548950195,-2.27688577881, 0.131681091309, 9.26795462646, -0.0154548239108, -0.0394364472206, -0.0115911179331
1.3359520435333252,-2.27688577881, 0.131681091309, 9.26795462646, -0.0154548239108, -0.0394364472206, -0.0115911179331
1.3379831314086914,-2.27688577881, 0.131681091309, 9.26795462646, -0.0154548239108, -0.0394364472206, -0.0115911179331
1.340893030166626,-2.27688577881, 0.131681091309, 9.26795462646, -0.0154548239108, -0.0394364472206, -0.0115911179331
1.3465161323547363,-2.27688577881, 0.131681091309, 9.26795462646, -0.0154548239108, -0.0394364472206, -0.0115911179331
1.3490610122680664,-2.27688577881, 0.131681091309, 9.26795462646, -0.0154548239108, -0.0394364472206, -0.0115911179331
1.3517191410064697,-2.27688577881, 0.131681091309, 9.26795462646, -0.0154548239108, -0.0394364472206, -0.0115911179331
1.3547000885009766,-2.27688577881, 0.131681091309, 9.26795462646, -0.0154548239108, -0.0394364472206, -0.0115911179331
1.35636305809021,-2.27688577881, 0.131681091309, 9.26795462646, -0.0154548239108, -0.0394364472206, -0.0115911179331
1.357753038406372,-2.27688577881, 0.131681091309, 9.26795462646, -0.0154548239108, -0.0394364472206, -0.0115911179331
1.3593800067901611,-2.27688577881, 0.131681091309, 9.26795462646, -0.0154548239108, -0.0394364472206, -0.0115911179331
1.3614201545715332,-2.27688577881, 0.131681091309, 9.26795462646, -0.0154548239108, -0.0394364472206, -0.0115911179331
1.3634140491485596,-2.27688577881, 0.131681091309, 9.26795462646, -0.0154548239108, -0.0394364472206, -0.0115911179331
1.3650190830230713,-2.27688577881, 0.131681091309, 9.26795462646, -0.0154548239108, -0.0394364472206, -0.0115911179331
1.3668310642242432,-2.27688577881, 0.131681091309, 9.26795462646, -0.0154548239108, -0.0394364472206, -0.0115911179331
1.36952805519104,-2.27688577881, 0.131681091309, 9.26795462646, -0.0154548239108, -0.0394364472206, -0.0115911179331
1.373723030090332,-2.27688577881, 0.131681091309, 9.26795462646, -0.0154548239108, -0.0394364472206, -0.0115911179331
1.377251148223877,-2.27688577881, 0.131681091309, 9.26795462646, -0.0154548239108, -0.0394364472206, -0.0115911179331
1.3804090023040771,-2.27688577881, 0.131681091309, 9.26795462646, -0.0154548239108, -0.0394364472206, -0.0115911179331
1.3824400901794434,-2.27688577881, 0.131681091309, 9.26795462646, -0.0154548239108, -0.0394364472206, -0.0115911179331
1.3841819763183594,-2.27688577881, 0.131681091309, 9.26795462646, -0.0154548239108, -0.0394364472206, -0.0115911179331
1.3858580589294434,-2.27688577881, 0.131681091309, 9.26795462646, -0.0154548239108, -0.0394364472206, -0.0115911179331
1.387606143951416,-2.27688577881, 0.131681091309, 9.26795462646, -0.0154548239108, -0.0394364472206, -0.0115911179331
1.3891310691833496,-2.27688577881, 0.131681091309, 9.26795462646, -0.0154548239108, -0.0394364472206, -0.0115911179331
1.3906340599060059,-2.27688577881, 0.131681091309, 9.26795462646, -0.0154548239108, -0.0394364472206, -0.0115911179331
1.3921270370483398,-2.27688577881, 0.131681091309, 9.26795462646, -0.0154548239108, -0.0394364472206, -0.0115911179331
1.393989086151123,-2.27688577881, 0.131681091309, 9.26795462646, -0.0154548239108, -0.0394364472206, -0.0115911179331
1.3966090679168701,-2.27688577881, 0.131681091309, 9.26795462646, -0.0154548239108, -0.0394364472206, -0.0115911179331
1.39860200881958,-2.27688577881, 0.131681091309, 9.26795462646, -0.0154548239108, -0.0394364472206, -0.0115911179331
1.409193992614746,-2.17393510742, 0.0119710083008, 9.45709655762, -0.0153215926702, -0.0419678407922, -0.0090597243615
1.4112401008605957,-2.17393510742, 0.0119710083008, 9.45709655762, -0.0153215926702, -0.0419678407922, -0.0090597243615
1.4124391078948975,-2.17393510742, 0.0119710083008, 9.45709655762, -0.0153215926702, -0.0419678407922, -0.0090597243615
1.4139130115509033,-2.17393510742, 0.0119710083008, 9.45709655762, -0.0153215926702, -0.0419678407922, -0.0090597243615
1.4154751300811768,-2.17393510742, 0.0119710083008, 9.45709655762, -0.0153215926702, -0.0419678407922, -0.0090597243615
1.4171090126037598,-2.17393510742, 0.0119710083008, 9.45709655762, -0.0153215926702, -0.0419678407922, -0.0090597243615
1.418705940246582,-2.17393510742, 0.0119710083008, 9.45709655762, -0.0153215926702, -0.0419678407922, -0.0090597243615
1.4204180240631104,-2.17393510742, 0.0119710083008, 9.45709655762, -0.0153215926702, -0.0419678407922, -0.0090597243615
1.4218690395355225,-2.17393510742, 0.0119710083008, 9.45709655762, -0.0153215926702, -0.0419678407922, -0.0090597243615
1.4236631393432617,-2.17393510742, 0.0119710083008, 9.45709655762, -0.0153215926702, -0.0419678407922, -0.0090597243615
1.425234079360962,-2.17393510742, 0.0119710083008, 9.45709655762, -0.0153215926702, -0.0419678407922, -0.0090597243615
1.4269139766693115,-2.17393510742, 0.0119710083008, 9.45709655762, -0.0153215926702, -0.0419678407922, -0.0090597243615
1.428905963897705,-2.17393510742, 0.0119710083008, 9.45709655762, -0.0153215926702, -0.0419678407922, -0.0090597243615
1.4322271347045898,-2.17393510742, 0.0119710083008, 9.45709655762, -0.0153215926702, -0.0419678407922, -0.0090597243615
1.4358141422271729,-2.17393510742, 0.0119710083008, 9.45709655762, -0.0153215926702, -0.0419678407922, -0.0090597243615
1.438887119293213,-2.17393510742, 0.0119710083008, 9.45709655762, -0.0153215926702, -0.0419678407922, -0.0090597243615
1.4410009384155273,-2.17393510742, 0.0119710083008, 9.45709655762, -0.0153215926702, -0.0419678407922, -0.0090597243615
1.4459459781646729,-2.17393510742, 0.0119710083008, 9.45709655762, -0.0153215926702, -0.0419678407922, -0.0090597243615
1.447679042816162,-2.17393510742, 0.0119710083008, 9.45709655762, -0.0153215926702, -0.0419678407922, -0.0090597243615
1.4494190216064453,-2.17393510742, 0.0119710083008, 9.45709655762, -0.0153215926702, -0.0419678407922, -0.0090597243615
1.4509129524230957,-2.17393510742, 0.0119710083008, 9.45709655762, -0.0153215926702, -0.0419678407922, -0.0090597243615
1.45243501663208,-2.17393510742, 0.0119710083008, 9.45709655762, -0.0153215926702, -0.0419678407922, -0.0090597243615
1.454348087310791,-2.17393510742, 0.0119710083008, 9.45709655762, -0.0153215926702, -0.0419678407922, -0.0090597243615
1.4557960033416748,-2.17393510742, 0.0119710083008, 9.45709655762, -0.0153215926702, -0.0419678407922, -0.0090597243615
1.4574739933013916,-2.17393510742, 0.0119710083008, 9.45709655762, -0.0153215926702, -0.0419678407922, -0.0090597243615
1.4595940113067627,-2.17393510742, 0.0119710083008, 9.45709655762, -0.0153215926702, -0.0419678407922, -0.0090597243615
1.4618101119995117,-2.17393510742, 0.0119710083008, 9.45709655762, -0.0153215926702, -0.0419678407922, -0.0090597243615
1.4658491611480713,-2.17393510742, 0.0119710083008, 9.45709655762, -0.0153215926702, -0.0419678407922, -0.0090597243615
1.4685580730438232,-2.17393510742, 0.0119710083008, 9.45709655762, -0.0153215926702, -0.0419678407922, -0.0090597243615
1.4709320068359375,-2.17393510742, 0.0119710083008, 9.45709655762, -0.0153215926702, -0.0419678407922, -0.0090597243615
1.4725861549377441,-2.17393510742, 0.0119710083008, 9.45709655762, -0.0153215926702, -0.0419678407922, -0.0090597243615
1.4742929935455322,-2.17393510742, 0.0119710083008, 9.45709655762, -0.0153215926702, -0.0419678407922, -0.0090597243615
1.476020097732544,-2.17393510742, 0.0119710083008, 9.45709655762, -0.0153215926702, -0.0419678407922, -0.0090597243615
1.4777591228485107,-2.17393510742, 0.0119710083008, 9.45709655762, -0.0153215926702, -0.0419678407922, -0.0090597243615
1.479444980621338,-2.17393510742, 0.0119710083008, 9.45709655762, -0.0153215926702, -0.0419678407922, -0.0090597243615
1.4812719821929932,-2.17393510742, 0.0119710083008, 9.45709655762, -0.0153215926702, -0.0419678407922, -0.0090597243615
1.4834041595458984,-2.17393510742, 0.0119710083008, 9.45709655762, -0.0153215926702, -0.0419678407922, -0.0090597243615
1.485234022140503,-2.17393510742, 0.0119710083008, 9.45709655762, -0.0153215926702, -0.0419678407922, -0.0090597243615
1.4868659973144531,-2.17393510742, 0.0119710083008, 9.45709655762, -0.0153215926702, -0.0419678407922, -0.0090597243615
1.488746166229248,-2.17393510742, 0.0119710083008, 9.45709655762, -0.0153215926702, -0.0419678407922, -0.0090597243615
1.490990161895752,-2.17393510742, 0.0119710083008, 9.45709655762, -0.0153215926702, -0.0419678407922, -0.0090597243615
1.4947340488433838,-2.17393510742, 0.0119710083008, 9.45709655762, -0.0153215926702, -0.0419678407922, -0.0090597243615
1.4986340999603271,-2.17393510742, 0.0119710083008, 9.45709655762, -0.0153215926702, -0.0419678407922, -0.0090597243615
1.507768154144287,-2.19548292236, 0.0885854614258, 9.28471403809, -0.0178529862418, -0.0395696784612, -0.00892649312089
1.50925612449646,-2.19548292236, 0.0885854614258, 9.28471403809, -0.0178529862418, -0.0395696784612, -0.00892649312089
1.5104119777679443,-2.19548292236, 0.0885854614258, 9.28471403809, -0.0178529862418, -0.0395696784612, -0.00892649312089
1.5114459991455078,-2.19548292236, 0.0885854614258, 9.28471403809, -0.0178529862418, -0.0395696784612, -0.00892649312089
1.5126571655273438,-2.19548292236, 0.0885854614258, 9.28471403809, -0.0178529862418, -0.0395696784612, -0.00892649312089
1.5138180255889893,-2.19548292236, 0.0885854614258, 9.28471403809, -0.0178529862418, -0.0395696784612, -0.00892649312089
1.514997959136963,-2.19548292236, 0.0885854614258, 9.28471403809, -0.0178529862418, -0.0395696784612, -0.00892649312089
1.5162270069122314,-2.19548292236, 0.0885854614258, 9.28471403809, -0.0178529862418, -0.0395696784612, -0.00892649312089
1.517409086227417,-2.19548292236, 0.0885854614258, 9.28471403809, -0.0178529862418, -0.0395696784612, -0.00892649312089
1.5187830924987793,-2.19548292236, 0.0885854614258, 9.28471403809, -0.0178529862418, -0.0395696784612, -0.00892649312089
1.5203490257263184,-2.19548292236, 0.0885854614258, 9.28471403809, -0.0178529862418, -0.0395696784612, -0.00892649312089
1.5239241123199463,-2.19548292236, 0.0885854614258, 9.28471403809, -0.0178529862418, -0.0395696784612, -0.00892649312089
1.5266029834747314,-2.19548292236, 0.0885854614258, 9.28471403809, -0.0178529862418, -0.0395696784612, -0.00892649312089
1.5287480354309082,-2.19548292236, 0.0885854614258, 9.28471403809, -0.0178529862418, -0.0395696784612, -0.00892649312089
1.5304241180419922,-2.19548292236, 0.0885854614258, 9.28471403809, -0.0178529862418, -0.0395696784612, -0.00892649312089
1.5321080684661865,-2.19548292236, 0.0885854614258, 9.28471403809, -0.0178529862418, -0.0395696784612, -0.00892649312089
1.5343379974365234,-2.19548292236, 0.0885854614258, 9.28471403809, -0.0178529862418, -0.0395696784612, -0.00892649312089
1.536175012588501,-2.19548292236, 0.0885854614258, 9.28471403809, -0.0178529862418, -0.0395696784612, -0.00892649312089
1.5378291606903076,-2.19548292236, 0.0885854614258, 9.28471403809, -0.0178529862418, -0.0395696784612, -0.00892649312089
1.5394940376281738,-2.19548292236, 0.0885854614258, 9.28471403809, -0.0178529862418, -0.0395696784612, -0.00892649312089
1.5442750453948975,-2.19548292236, 0.0885854614258, 9.28471403809, -0.0178529862418, -0.0395696784612, -0.00892649312089
1.546191930770874,-2.19548292236, 0.0885854614258, 9.28471403809, -0.0178529862418, -0.0395696784612, -0.00892649312089
1.5483031272888184,-2.19548292236, 0.0885854614258, 9.28471403809, -0.0178529862418, -0.0395696784612, -0.00892649312089
1.5501930713653564,-2.19548292236, 0.0885854614258, 9.28471403809, -0.0178529862418, -0.0395696784612, -0.00892649312089
1.5528969764709473,-2.19548292236, 0.0885854614258, 9.28471403809, -0.0178529862418, -0.0395696784612, -0.00892649312089
1.5566561222076416,-2.19548292236, 0.0885854614258, 9.28471403809, -0.0178529862418, -0.0395696784612, -0.00892649312089
1.559952974319458,-2.19548292236, 0.0885854614258, 9.28471403809, -0.0178529862418, -0.0395696784612, -0.00892649312089
1.5636539459228516,-2.19548292236, 0.0885854614258, 9.28471403809, -0.0178529862418, -0.0395696784612, -0.00892649312089
1.5654449462890625,-2.19548292236, 0.0885854614258, 9.28471403809, -0.0178529862418, -0.0395696784612, -0.00892649312089
1.567126989364624,-2.19548292236, 0.0885854614258, 9.28471403809, -0.0178529862418, -0.0395696784612, -0.00892649312089
1.568701982498169,-2.19548292236, 0.0885854614258, 9.28471403809, -0.0178529862418, -0.0395696784612, -0.00892649312089
1.5702741146087646,-2.19548292236, 0.0885854614258, 9.28471403809, -0.0178529862418, -0.0395696784612, -0.00892649312089
1.5718951225280762,-2.19548292236, 0.0885854614258, 9.28471403809, -0.0178529862418, -0.0395696784612, -0.00892649312089
1.5736100673675537,-2.19548292236, 0.0885854614258, 9.28471403809, -0.0178529862418, -0.0395696784612, -0.00892649312089
1.575922966003418,-2.19548292236, 0.0885854614258, 9.28471403809, -0.0178529862418, -0.0395696784612, -0.00892649312089
1.577721118927002,-2.19548292236, 0.0885854614258, 9.28471403809, -0.0178529862418, -0.0395696784612, -0.00892649312089
1.5794651508331299,-2.19548292236, 0.0885854614258, 9.28471403809, -0.0178529862418, -0.0395696784612, -0.00892649312089
1.5814120769500732,-2.19548292236, 0.0885854614258, 9.28471403809, -0.0178529862418, -0.0395696784612, -0.00892649312089
1.584057092666626,-2.19548292236, 0.0885854614258, 9.28471403809, -0.0178529862418, -0.0395696784612, -0.00892649312089
1.5878260135650635,-2.19548292236, 0.0885854614258, 9.28471403809, -0.0178529862418, -0.0395696784612, -0.00892649312089
1.5910191535949707,-2.19548292236, 0.0885854614258, 9.28471403809, -0.0178529862418, -0.0395696784612, -0.00892649312089
1.5936639308929443,-2.19548292236, 0.0885854614258, 9.28471403809, -0.0178529862418, -0.0395696784612, -0.00892649312089
1.5992109775543213,-2.19548292236, 0.0885854614258, 9.28471403809, -0.0178529862418, -0.0395696784612, -0.00892649312089
1.6008541584014893,-2.19548292236, 0.0885854614258, 9.28471403809, -0.0178529862418, -0.0395696784612, -0.00892649312089
1.6033051013946533,-2.19548292236, 0.0885854614258, 9.28471403809, -0.0178529862418, -0.0395696784612, -0.00892649312089
1.608694076538086,-2.27449157715, 0.122104284668, 9.33020386963, -0.0153215926702, -0.0377044410927, -0.0123905053768
1.610482931137085,-2.27449157715, 0.122104284668, 9.33020386963, -0.0153215926702, -0.0377044410927, -0.0123905053768
1.6129570007324219,-2.27449157715, 0.122104284668, 9.33020386963, -0.0153215926702, -0.0377044410927, -0.0123905053768
1.6148440837860107,-2.27449157715, 0.122104284668, 9.33020386963, -0.0153215926702, -0.0377044410927, -0.0123905053768
1.6186800003051758,-2.27449157715, 0.122104284668, 9.33020386963, -0.0153215926702, -0.0377044410927, -0.0123905053768
1.6216189861297607,-2.27449157715, 0.122104284668, 9.33020386963, -0.0153215926702, -0.0377044410927, -0.0123905053768
1.624418020248413,-2.27449157715, 0.122104284668, 9.33020386963, -0.0153215926702, -0.0377044410927, -0.0123905053768
1.6266770362854004,-2.27449157715, 0.122104284668, 9.33020386963, -0.0153215926702, -0.0377044410927, -0.0123905053768
1.6281840801239014,-2.27449157715, 0.122104284668, 9.33020386963, -0.0153215926702, -0.0377044410927, -0.0123905053768
1.6293730735778809,-2.27449157715, 0.122104284668, 9.33020386963, -0.0153215926702, -0.0377044410927, -0.0123905053768
1.6304500102996826,-2.27449157715, 0.122104284668, 9.33020386963, -0.0153215926702, -0.0377044410927, -0.0123905053768
1.6315600872039795,-2.27449157715, 0.122104284668, 9.33020386963, -0.0153215926702, -0.0377044410927, -0.0123905053768
1.6328980922698975,-2.27449157715, 0.122104284668, 9.33020386963, -0.0153215926702, -0.0377044410927, -0.0123905053768
1.634274959564209,-2.27449157715, 0.122104284668, 9.33020386963, -0.0153215926702, -0.0377044410927, -0.0123905053768
1.6354761123657227,-2.27449157715, 0.122104284668, 9.33020386963, -0.0153215926702, -0.0377044410927, -0.0123905053768
1.6366569995880127,-2.27449157715, 0.122104284668, 9.33020386963, -0.0153215926702, -0.0377044410927, -0.0123905053768
1.6377930641174316,-2.27449157715, 0.122104284668, 9.33020386963, -0.0153215926702, -0.0377044410927, -0.0123905053768
1.6389260292053223,-2.27449157715, 0.122104284668, 9.33020386963, -0.0153215926702, -0.0377044410927, -0.0123905053768
1.6438920497894287,-2.27449157715, 0.122104284668, 9.33020386963, -0.0153215926702, -0.0377044410927, -0.0123905053768
1.6455650329589844,-2.27449157715, 0.122104284668, 9.33020386963, -0.0153215926702, -0.0377044410927, -0.0123905053768
1.6478590965270996,-2.27449157715, 0.122104284668, 9.33020386963, -0.0153215926702, -0.0377044410927, -0.0123905053768
1.650731086730957,-2.27449157715, 0.122104284668, 9.33020386963, -0.0153215926702, -0.0377044410927, -0.0123905053768
1.653097152709961,-2.27449157715, 0.122104284668, 9.33020386963, -0.0153215926702, -0.0377044410927, -0.0123905053768
1.6555249691009521,-2.27449157715, 0.122104284668, 9.33020386963, -0.0153215926702, -0.0377044410927, -0.0123905053768
1.657573938369751,-2.27449157715, 0.122104284668, 9.33020386963, -0.0153215926702, -0.0377044410927, -0.0123905053768
1.6599340438842773,-2.27449157715, 0.122104284668, 9.33020386963, -0.0153215926702, -0.0377044410927, -0.0123905053768
1.6621830463409424,-2.27449157715, 0.122104284668, 9.33020386963, -0.0153215926702, -0.0377044410927, -0.0123905053768
1.664687156677246,-2.27449157715, 0.122104284668, 9.33020386963, -0.0153215926702, -0.0377044410927, -0.0123905053768
1.6664531230926514,-2.27449157715, 0.122104284668, 9.33020386963, -0.0153215926702, -0.0377044410927, -0.0123905053768
1.6681079864501953,-2.27449157715, 0.122104284668, 9.33020386963, -0.0153215926702, -0.0377044410927, -0.0123905053768
1.6698949337005615,-2.27449157715, 0.122104284668, 9.33020386963, -0.0153215926702, -0.0377044410927, -0.0123905053768
1.671489953994751,-2.27449157715, 0.122104284668, 9.33020386963, -0.0153215926702, -0.0377044410927, -0.0123905053768
1.6734731197357178,-2.27449157715, 0.122104284668, 9.33020386963, -0.0153215926702, -0.0377044410927, -0.0123905053768
1.676516056060791,-2.27449157715, 0.122104284668, 9.33020386963, -0.0153215926702, -0.0377044410927, -0.0123905053768
1.6805269718170166,-2.27449157715, 0.122104284668, 9.33020386963, -0.0153215926702, -0.0377044410927, -0.0123905053768
1.6836190223693848,-2.27449157715, 0.122104284668, 9.33020386963, -0.0153215926702, -0.0377044410927, -0.0123905053768
1.6864111423492432,-2.27449157715, 0.122104284668, 9.33020386963, -0.0153215926702, -0.0377044410927, -0.0123905053768
1.6883060932159424,-2.27449157715, 0.122104284668, 9.33020386963, -0.0153215926702, -0.0377044410927, -0.0123905053768
1.6899449825286865,-2.27449157715, 0.122104284668, 9.33020386963, -0.0153215926702, -0.0377044410927, -0.0123905053768
1.6917271614074707,-2.27449157715, 0.122104284668, 9.33020386963, -0.0153215926702, -0.0377044410927, -0.0123905053768
1.6940081119537354,-2.27449157715, 0.122104284668, 9.33020386963, -0.0153215926702, -0.0377044410927, -0.0123905053768
1.6996991634368896,-2.27449157715, 0.122104284668, 9.33020386963, -0.0153215926702, -0.0377044410927, -0.0123905053768
1.70147705078125,-2.27449157715, 0.122104284668, 9.33020386963, -0.0153215926702, -0.0377044410927, -0.0123905053768
1.7033419609069824,-2.27449157715, 0.122104284668, 9.33020386963, -0.0153215926702, -0.0377044410927, -0.0123905053768
1.7059669494628906,-2.27449157715, 0.122104284668, 9.33020386963, -0.0153215926702, -0.0377044410927, -0.0123905053768
1.7134490013122559,-2.11647426758, 0.363918652344, 9.57441243896, -0.0341071975962, -0.0319754977465, -0.0510275651537
1.7160429954528809,-2.11647426758, 0.363918652344, 9.57441243896, -0.0341071975962, -0.0319754977465, -0.0510275651537
1.717543125152588,-2.11647426758, 0.363918652344, 9.57441243896, -0.0341071975962, -0.0319754977465, -0.0510275651537
1.7191331386566162,-2.11647426758, 0.363918652344, 9.57441243896, -0.0341071975962, -0.0319754977465, -0.0510275651537
1.7206499576568604,-2.11647426758, 0.363918652344, 9.57441243896, -0.0341071975962, -0.0319754977465, -0.0510275651537
1.7229299545288086,-2.11647426758, 0.363918652344, 9.57441243896, -0.0341071975962, -0.0319754977465, -0.0510275651537
1.7249870300292969,-2.11647426758, 0.363918652344, 9.57441243896, -0.0341071975962, -0.0319754977465, -0.0510275651537
1.7268540859222412,-2.11647426758, 0.363918652344, 9.57441243896, -0.0341071975962, -0.0319754977465, -0.0510275651537
1.7285850048065186,-2.11647426758, 0.363918652344, 9.57441243896, -0.0341071975962, -0.0319754977465, -0.0510275651537
1.7302019596099854,-2.11647426758, 0.363918652344, 9.57441243896, -0.0341071975962, -0.0319754977465, -0.0510275651537
1.731935977935791,-2.11647426758, 0.363918652344, 9.57441243896, -0.0341071975962, -0.0319754977465, -0.0510275651537
1.734179973602295,-2.11647426758, 0.363918652344, 9.57441243896, -0.0341071975962, -0.0319754977465, -0.0510275651537
1.7363810539245605,-2.11647426758, 0.363918652344, 9.57441243896, -0.0341071975962, -0.0319754977465, -0.0510275651537
1.739670991897583,-2.11647426758, 0.363918652344, 9.57441243896, -0.0341071975962, -0.0319754977465, -0.0510275651537
1.7469451427459717,-2.11647426758, 0.363918652344, 9.57441243896, -0.0341071975962, -0.0319754977465, -0.0510275651537
1.7490110397338867,-2.11647426758, 0.363918652344, 9.57441243896, -0.0341071975962, -0.0319754977465, -0.0510275651537
1.750411033630371,-2.11647426758, 0.363918652344, 9.57441243896, -0.0341071975962, -0.0319754977465, -0.0510275651537
1.7517609596252441,-2.11647426758, 0.363918652344, 9.57441243896, -0.0341071975962, -0.0319754977465, -0.0510275651537
1.7531211376190186,-2.11647426758, 0.363918652344, 9.57441243896, -0.0341071975962, -0.0319754977465, -0.0510275651537
1.754244089126587,-2.11647426758, 0.363918652344, 9.57441243896, -0.0341071975962, -0.0319754977465, -0.0510275651537
1.7553889751434326,-2.11647426758, 0.363918652344, 9.57441243896, -0.0341071975962, -0.0319754977465, -0.0510275651537
1.7565109729766846,-2.11647426758, 0.363918652344, 9.57441243896, -0.0341071975962, -0.0319754977465, -0.0510275651537
1.7580139636993408,-2.11647426758, 0.363918652344, 9.57441243896, -0.0341071975962, -0.0319754977465, -0.0510275651537
1.759432077407837,-2.11647426758, 0.363918652344, 9.57441243896, -0.0341071975962, -0.0319754977465, -0.0510275651537
1.7606000900268555,-2.11647426758, 0.363918652344, 9.57441243896, -0.0341071975962, -0.0319754977465, -0.0510275651537
1.7619750499725342,-2.11647426758, 0.363918652344, 9.57441243896, -0.0341071975962, -0.0319754977465, -0.0510275651537
1.763383150100708,-2.11647426758, 0.363918652344, 9.57441243896, -0.0341071975962, -0.0319754977465, -0.0510275651537
1.764909029006958,-2.11647426758, 0.363918652344, 9.57441243896, -0.0341071975962, -0.0319754977465, -0.0510275651537
1.7666270732879639,-2.11647426758, 0.363918652344, 9.57441243896, -0.0341071975962, -0.0319754977465, -0.0510275651537
1.7684290409088135,-2.11647426758, 0.363918652344, 9.57441243896, -0.0341071975962, -0.0319754977465, -0.0510275651537
1.7700979709625244,-2.11647426758, 0.363918652344, 9.57441243896, -0.0341071975962, -0.0319754977465, -0.0510275651537
1.7717289924621582,-2.11647426758, 0.363918652344, 9.57441243896, -0.0341071975962, -0.0319754977465, -0.0510275651537
1.7760260105133057,-2.11647426758, 0.363918652344, 9.57441243896, -0.0341071975962, -0.0319754977465, -0.0510275651537
1.7788801193237305,-2.11647426758, 0.363918652344, 9.57441243896, -0.0341071975962, -0.0319754977465, -0.0510275651537
1.7819950580596924,-2.11647426758, 0.363918652344, 9.57441243896, -0.0341071975962, -0.0319754977465, -0.0510275651537
1.785120964050293,-2.11647426758, 0.363918652344, 9.57441243896, -0.0341071975962, -0.0319754977465, -0.0510275651537
1.7871479988098145,-2.11647426758, 0.363918652344, 9.57441243896, -0.0341071975962, -0.0319754977465, -0.0510275651537
1.7887790203094482,-2.11647426758, 0.363918652344, 9.57441243896, -0.0341071975962, -0.0319754977465, -0.0510275651537
1.7904341220855713,-2.11647426758, 0.363918652344, 9.57441243896, -0.0341071975962, -0.0319754977465, -0.0510275651537
1.7921690940856934,-2.11647426758, 0.363918652344, 9.57441243896, -0.0341071975962, -0.0319754977465, -0.0510275651537
1.793962001800537,-2.11647426758, 0.363918652344, 9.57441243896, -0.0341071975962, -0.0319754977465, -0.0510275651537
1.7956981658935547,-2.11647426758, 0.363918652344, 9.57441243896, -0.0341071975962, -0.0319754977465, -0.0510275651537
1.7984180450439453,-2.11647426758, 0.363918652344, 9.57441243896, -0.0341071975962, -0.0319754977465, -0.0510275651537
1.801335096359253,-2.11647426758, 0.363918652344, 9.57441243896, -0.0341071975962, -0.0319754977465, -0.0510275651537
1.8087899684906006,-2.17393510742, 0.119710083008, 9.31105025635, -0.022915773385, -0.0291776416936, -0.00666156203051
1.8140461444854736,-2.17393510742, 0.119710083008, 9.31105025635, -0.022915773385, -0.0291776416936, -0.00666156203051
1.8156750202178955,-2.17393510742, 0.119710083008, 9.31105025635, -0.022915773385, -0.0291776416936, -0.00666156203051
1.8173160552978516,-2.17393510742, 0.119710083008, 9.31105025635, -0.022915773385, -0.0291776416936, -0.00666156203051
1.8188979625701904,-2.17393510742, 0.119710083008, 9.31105025635, -0.022915773385, -0.0291776416936, -0.00666156203051
1.8205561637878418,-2.17393510742, 0.119710083008, 9.31105025635, -0.022915773385, -0.0291776416936, -0.00666156203051
1.822279930114746,-2.17393510742, 0.119710083008, 9.31105025635, -0.022915773385, -0.0291776416936, -0.00666156203051
1.8240480422973633,-2.17393510742, 0.119710083008, 9.31105025635, -0.022915773385, -0.0291776416936, -0.00666156203051
1.8263630867004395,-2.17393510742, 0.119710083008, 9.31105025635, -0.022915773385, -0.0291776416936, -0.00666156203051
1.8288490772247314,-2.17393510742, 0.119710083008, 9.31105025635, -0.022915773385, -0.0291776416936, -0.00666156203051
1.8336589336395264,-2.17393510742, 0.119710083008, 9.31105025635, -0.022915773385, -0.0291776416936, -0.00666156203051
1.8369319438934326,-2.17393510742, 0.119710083008, 9.31105025635, -0.022915773385, -0.0291776416936, -0.00666156203051
1.8397271633148193,-2.17393510742, 0.119710083008, 9.31105025635, -0.022915773385, -0.0291776416936, -0.00666156203051
1.8456311225891113,-2.17393510742, 0.119710083008, 9.31105025635, -0.022915773385, -0.0291776416936, -0.00666156203051
1.847654104232788,-2.17393510742, 0.119710083008, 9.31105025635, -0.022915773385, -0.0291776416936, -0.00666156203051
1.8494360446929932,-2.17393510742, 0.119710083008, 9.31105025635, -0.022915773385, -0.0291776416936, -0.00666156203051
1.8510429859161377,-2.17393510742, 0.119710083008, 9.31105025635, -0.022915773385, -0.0291776416936, -0.00666156203051
1.8528809547424316,-2.17393510742, 0.119710083008, 9.31105025635, -0.022915773385, -0.0291776416936, -0.00666156203051
1.8546149730682373,-2.17393510742, 0.119710083008, 9.31105025635, -0.022915773385, -0.0291776416936, -0.00666156203051
1.856652021408081,-2.17393510742, 0.119710083008, 9.31105025635, -0.022915773385, -0.0291776416936, -0.00666156203051
1.8591351509094238,-2.17393510742, 0.119710083008, 9.31105025635, -0.022915773385, -0.0291776416936, -0.00666156203051
1.8615610599517822,-2.17393510742, 0.119710083008, 9.31105025635, -0.022915773385, -0.0291776416936, -0.00666156203051
1.8655669689178467,-2.17393510742, 0.119710083008, 9.31105025635, -0.022915773385, -0.0291776416936, -0.00666156203051
1.8681471347808838,-2.17393510742, 0.119710083008, 9.31105025635, -0.022915773385, -0.0291776416936, -0.00666156203051
1.8705580234527588,-2.17393510742, 0.119710083008, 9.31105025635, -0.022915773385, -0.0291776416936, -0.00666156203051
1.8729591369628906,-2.17393510742, 0.119710083008, 9.31105025635, -0.022915773385, -0.0291776416936, -0.00666156203051
1.874650001525879,-2.17393510742, 0.119710083008, 9.31105025635, -0.022915773385, -0.0291776416936, -0.00666156203051
1.8763160705566406,-2.17393510742, 0.119710083008, 9.31105025635, -0.022915773385, -0.0291776416936, -0.00666156203051
1.8779349327087402,-2.17393510742, 0.119710083008, 9.31105025635, -0.022915773385, -0.0291776416936, -0.00666156203051
1.879668951034546,-2.17393510742, 0.119710083008, 9.31105025635, -0.022915773385, -0.0291776416936, -0.00666156203051
1.8809340000152588,-2.17393510742, 0.119710083008, 9.31105025635, -0.022915773385, -0.0291776416936, -0.00666156203051
1.8820300102233887,-2.17393510742, 0.119710083008, 9.31105025635, -0.022915773385, -0.0291776416936, -0.00666156203051
1.8833489418029785,-2.17393510742, 0.119710083008, 9.31105025635, -0.022915773385, -0.0291776416936, -0.00666156203051
1.88466215133667,-2.17393510742, 0.119710083008, 9.31105025635, -0.022915773385, -0.0291776416936, -0.00666156203051
1.8857779502868652,-2.17393510742, 0.119710083008, 9.31105025635, -0.022915773385, -0.0291776416936, -0.00666156203051
1.8872489929199219,-2.17393510742, 0.119710083008, 9.31105025635, -0.022915773385, -0.0291776416936, -0.00666156203051
1.8890230655670166,-2.17393510742, 0.119710083008, 9.31105025635, -0.022915773385, -0.0291776416936, -0.00666156203051
1.8907301425933838,-2.17393510742, 0.119710083008, 9.31105025635, -0.022915773385, -0.0291776416936, -0.00666156203051
1.8926081657409668,-2.17393510742, 0.119710083008, 9.31105025635, -0.022915773385, -0.0291776416936, -0.00666156203051
1.8946149349212646,-2.17393510742, 0.119710083008, 9.31105025635, -0.022915773385, -0.0291776416936, -0.00666156203051
1.8982341289520264,-2.17393510742, 0.119710083008, 9.31105025635, -0.022915773385, -0.0291776416936, -0.00666156203051
1.901155948638916,-2.17393510742, 0.119710083008, 9.31105025635, -0.022915773385, -0.0291776416936, -0.00666156203051
1.9123790264129639,-2.29125098877, 0.15322890625, 9.26077202148, -0.0145222052265, -0.0448989280857, -0.0158545176326
1.9146089553833008,-2.29125098877, 0.15322890625, 9.26077202148, -0.0145222052265, -0.0448989280857, -0.0158545176326
1.9163241386413574,-2.29125098877, 0.15322890625, 9.26077202148, -0.0145222052265, -0.0448989280857, -0.0158545176326
1.9180810451507568,-2.29125098877, 0.15322890625, 9.26077202148, -0.0145222052265, -0.0448989280857, -0.0158545176326
1.9213061332702637,-2.29125098877, 0.15322890625, 9.26077202148, -0.0145222052265, -0.0448989280857, -0.0158545176326
1.9248571395874023,-2.29125098877, 0.15322890625, 9.26077202148, -0.0145222052265, -0.0448989280857, -0.0158545176326
1.928252935409546,-2.29125098877, 0.15322890625, 9.26077202148, -0.0145222052265, -0.0448989280857, -0.0158545176326
1.9305901527404785,-2.29125098877, 0.15322890625, 9.26077202148, -0.0145222052265, -0.0448989280857, -0.0158545176326
1.9322831630706787,-2.29125098877, 0.15322890625, 9.26077202148, -0.0145222052265, -0.0448989280857, -0.0158545176326
1.9342429637908936,-2.29125098877, 0.15322890625, 9.26077202148, -0.0145222052265, -0.0448989280857, -0.0158545176326
1.9360439777374268,-2.29125098877, 0.15322890625, 9.26077202148, -0.0145222052265, -0.0448989280857, -0.0158545176326
1.9381721019744873,-2.29125098877, 0.15322890625, 9.26077202148, -0.0145222052265, -0.0448989280857, -0.0158545176326
1.9399211406707764,-2.29125098877, 0.15322890625, 9.26077202148, -0.0145222052265, -0.0448989280857, -0.0158545176326
1.953042984008789,-2.29125098877, 0.15322890625, 9.26077202148, -0.0145222052265, -0.0448989280857, -0.0158545176326
1.95753812789917,-2.29125098877, 0.15322890625, 9.26077202148, -0.0145222052265, -0.0448989280857, -0.0158545176326
1.9593181610107422,-2.29125098877, 0.15322890625, 9.26077202148, -0.0145222052265, -0.0448989280857, -0.0158545176326
1.961008071899414,-2.29125098877, 0.15322890625, 9.26077202148, -0.0145222052265, -0.0448989280857, -0.0158545176326
1.9637451171875,-2.29125098877, 0.15322890625, 9.26077202148, -0.0145222052265, -0.0448989280857, -0.0158545176326
1.9655110836029053,-2.29125098877, 0.15322890625, 9.26077202148, -0.0145222052265, -0.0448989280857, -0.0158545176326
1.9674580097198486,-2.29125098877, 0.15322890625, 9.26077202148, -0.0145222052265, -0.0448989280857, -0.0158545176326
1.9690909385681152,-2.29125098877, 0.15322890625, 9.26077202148, -0.0145222052265, -0.0448989280857, -0.0158545176326
1.9707059860229492,-2.29125098877, 0.15322890625, 9.26077202148, -0.0145222052265, -0.0448989280857, -0.0158545176326
1.972564935684204,-2.29125098877, 0.15322890625, 9.26077202148, -0.0145222052265, -0.0448989280857, -0.0158545176326
1.9746389389038086,-2.29125098877, 0.15322890625, 9.26077202148, -0.0145222052265, -0.0448989280857, -0.0158545176326
1.9761919975280762,-2.29125098877, 0.15322890625, 9.26077202148, -0.0145222052265, -0.0448989280857, -0.0158545176326
1.9776980876922607,-2.29125098877, 0.15322890625, 9.26077202148, -0.0145222052265, -0.0448989280857, -0.0158545176326
1.979478120803833,-2.29125098877, 0.15322890625, 9.26077202148, -0.0145222052265, -0.0448989280857, -0.0158545176326
1.9852349758148193,-2.29125098877, 0.15322890625, 9.26077202148, -0.0145222052265, -0.0448989280857, -0.0158545176326
1.9884469509124756,-2.29125098877, 0.15322890625, 9.26077202148, -0.0145222052265, -0.0448989280857, -0.0158545176326
1.9902911186218262,-2.29125098877, 0.15322890625, 9.26077202148, -0.0145222052265, -0.0448989280857, -0.0158545176326
1.992009162902832,-2.29125098877, 0.15322890625, 9.26077202148, -0.0145222052265, -0.0448989280857, -0.0158545176326
1.9946660995483398,-2.29125098877, 0.15322890625, 9.26077202148, -0.0145222052265, -0.0448989280857, -0.0158545176326
1.9973950386047363,-2.29125098877, 0.15322890625, 9.26077202148, -0.0145222052265, -0.0448989280857, -0.0158545176326
2.0006611347198486,-2.29125098877, 0.15322890625, 9.26077202148, -0.0145222052265, -0.0448989280857, -0.0158545176326
2.017051935195923,-2.1691467041, 0.100556469727, 9.28710823975, -0.0118575804143, -0.0371715161303, -0.0115911179331
2.0186870098114014,-2.1691467041, 0.100556469727, 9.28710823975, -0.0118575804143, -0.0371715161303, -0.0115911179331
2.0204689502716064,-2.1691467041, 0.100556469727, 9.28710823975, -0.0118575804143, -0.0371715161303, -0.0115911179331
2.0221869945526123,-2.1691467041, 0.100556469727, 9.28710823975, -0.0118575804143, -0.0371715161303, -0.0115911179331
2.0240089893341064,-2.1691467041, 0.100556469727, 9.28710823975, -0.0118575804143, -0.0371715161303, -0.0115911179331
2.02604603767395,-2.1691467041, 0.100556469727, 9.28710823975, -0.0118575804143, -0.0371715161303, -0.0115911179331
2.0279221534729004,-2.1691467041, 0.100556469727, 9.28710823975, -0.0118575804143, -0.0371715161303, -0.0115911179331
2.0295920372009277,-2.1691467041, 0.100556469727, 9.28710823975, -0.0118575804143, -0.0371715161303, -0.0115911179331
2.031316041946411,-2.1691467041, 0.100556469727, 9.28710823975, -0.0118575804143, -0.0371715161303, -0.0115911179331
2.0332159996032715,-2.1691467041, 0.100556469727, 9.28710823975, -0.0118575804143, -0.0371715161303, -0.0115911179331
2.035220146179199,-2.1691467041, 0.100556469727, 9.28710823975, -0.0118575804143, -0.0371715161303, -0.0115911179331
2.0370190143585205,-2.1691467041, 0.100556469727, 9.28710823975, -0.0118575804143, -0.0371715161303, -0.0115911179331
2.038985013961792,-2.1691467041, 0.100556469727, 9.28710823975, -0.0118575804143, -0.0371715161303, -0.0115911179331
2.041727066040039,-2.1691467041, 0.100556469727, 9.28710823975, -0.0118575804143, -0.0371715161303, -0.0115911179331
2.046638011932373,-2.1691467041, 0.100556469727, 9.28710823975, -0.0118575804143, -0.0371715161303, -0.0115911179331
2.054306983947754,-2.1691467041, 0.100556469727, 9.28710823975, -0.0118575804143, -0.0371715161303, -0.0115911179331
2.0560410022735596,-2.1691467041, 0.100556469727, 9.28710823975, -0.0118575804143, -0.0371715161303, -0.0115911179331
2.058298110961914,-2.1691467041, 0.100556469727, 9.28710823975, -0.0118575804143, -0.0371715161303, -0.0115911179331
2.060025930404663,-2.1691467041, 0.100556469727, 9.28710823975, -0.0118575804143, -0.0371715161303, -0.0115911179331
2.0620110034942627,-2.1691467041, 0.100556469727, 9.28710823975, -0.0118575804143, -0.0371715161303, -0.0115911179331
2.0646469593048096,-2.1691467041, 0.100556469727, 9.28710823975, -0.0118575804143, -0.0371715161303, -0.0115911179331
