time,acceX,acceY,acceZ,gyroX,gyroY,gyroZ
0.040772199630737305,,0,0,0,0
0.04806208610534668,,0,0,0,0
0.04915118217468262,,0,0,0,0
0.05034303665161133,,0,0,0,0
0.05136704444885254,,0,0,0,0
0.06487917900085449,,0,0,0,0
0.07604598999023438,,0,0,0,0
0.07754111289978027,,0,0,0,0
0.07858610153198242,,0,0,0,0
0.0796811580657959,,0,0,0,0
0.08099699020385742,,0,0,0,0
0.08171916007995605,,0,0,0,0
0.08280205726623535,,0,0,0,0
0.08378314971923828,,0,0,0,0
0.08452820777893066,,0,0,0,0
0.0852961540222168,,0,0,0,0
0.08600020408630371,,0,0,0,0
0.08716607093811035,,0,0,0,0
0.08828520774841309,,0,0,0,0
0.08918404579162598,,0,0,0,0
0.09003210067749023,,0,0,0,0
0.09136700630187988,,0,0,0,0
0.09500813484191895,,0,0,0,0
0.09634208679199219,,0,0,0,0
0.09739804267883301,,0,0,0,0
0.0982820987701416,,0,0,0,0
0.09899306297302246,,0,0,0,0
0.09966111183166504,,0,0,0,0
0.10036897659301758,,0,0,0,0
0.10137820243835449,,0,0,0,0
0.10211801528930664,,0,0,0,0
0.10289812088012695,,0,0,0,0
0.10368514060974121,,0,0,0,0
0.10446000099182129,,0,0,0,0
0.10520601272583008,,0,0,0,0
0.10587215423583984,,0,0,0,0
0.10663819313049316,,0,0,0,0
0.10738205909729004,,0,0,0,0
0.10803508758544922,,0,0,0,0
0.10873103141784668,,0,0,0,0
0.10941600799560547,,0,0,0,0
0.11010217666625977,,0,0,0,0
0.11082220077514648,,0,0,0,0
0.11154818534851074,,0,0,0,0
0.1123201847076416,,0,0,0,0
0.11313915252685547,,0,0,0,0
0.11379003524780273,,0,0,0,0
0.11447501182556152,,0,0,0,0
0.13941597938537598,-0.656011254883, 2.23379014893, 9.24880101318, -1.0, -1.40458015267, -0.519083969466
0.14139699935913086,-0.656011254883, 2.23379014893, 9.24880101318, -1.0, -1.40458015267, -0.519083969466
0.14354801177978516,-0.656011254883, 2.23379014893, 9.24880101318, -1.0, -1.40458015267, -0.519083969466
0.14585208892822266,-0.656011254883, 2.23379014893, 9.24880101318, -1.0, -1.40458015267, -0.519083969466
0.14895200729370117,-0.656011254883, 2.23379014893, 9.24880101318, -1.0, -1.40458015267, -0.519083969466
0.1504499912261963,-0.656011254883, 2.23379014893, 9.24880101318, -1.0, -1.40458015267, -0.519083969466
0.15348219871520996,-0.656011254883, 2.23379014893, 9.24880101318, -1.0, -1.40458015267, -0.519083969466
0.15572619438171387,-0.656011254883, 2.23379014893, 9.24880101318, -1.0, -1.40458015267, -0.519083969466
0.15792202949523926,-0.656011254883, 2.23379014893, 9.24880101318, -1.0, -1.40458015267, -0.519083969466
0.15920019149780273,-0.656011254883, 2.23379014893, 9.24880101318, -1.0, -1.40458015267, -0.519083969466
0.1605541706085205,-0.656011254883, 2.23379014893, 9.24880101318, -1.0, -1.40458015267, -0.519083969466
0.16484999656677246,-0.656011254883, 2.23379014893, 9.24880101318, -1.0, -1.40458015267, -0.519083969466
0.16813206672668457,-0.656011254883, 2.23379014893, 9.24880101318, -1.0, -1.40458015267, -0.519083969466
0.17172908782958984,-0.656011254883, 2.23379014893, 9.24880101318, -1.0, -1.40458015267, -0.519083969466
0.17933011054992676,-0.656011254883, 2.23379014893, 9.24880101318, -1.0, -1.40458015267, -0.519083969466
0.18325114250183105,-0.656011254883, 2.23379014893, 9.24880101318, -1.0, -1.40458015267, -0.519083969466
0.18572020530700684,-0.656011254883, 2.23379014893, 9.24880101318, -1.0, -1.40458015267, -0.519083969466
0.18794512748718262,-0.656011254883, 2.23379014893, 9.24880101318, -1.0, -1.40458015267, -0.519083969466
0.19015097618103027,-0.656011254883, 2.23379014893, 9.24880101318, -1.0, -1.40458015267, -0.519083969466
0.19279909133911133,-0.656011254883, 2.23379014893, 9.24880101318, -1.0, -1.40458015267, -0.519083969466
0.19497919082641602,-0.656011254883, 2.23379014893, 9.24880101318, -1.0, -1.40458015267, -0.519083969466
0.19745707511901855,-0.656011254883, 2.23379014893, 9.24880101318, -1.0, -1.40458015267, -0.519083969466
0.20033502578735352,-0.656011254883, 2.23379014893, 9.24880101318, -1.0, -1.40458015267, -0.519083969466
0.20336318016052246,-0.656011254883, 2.23379014893, 9.24880101318, -1.0, -1.40458015267, -0.519083969466
0.20458602905273438,-0.656011254883, 2.23379014893, 9.24880101318, -1.0, -1.40458015267, -0.519083969466
0.2064051628112793,-0.656011254883, 2.23379014893, 9.24880101318, -1.0, -1.40458015267, -0.519083969466
0.20969009399414062,-0.656011254883, 2.23379014893, 9.24880101318, -1.0, -1.40458015267, -0.519083969466
0.21335101127624512,-0.656011254883, 2.23379014893, 9.24880101318, -1.0, -1.40458015267, -0.519083969466
0.21611905097961426,-0.656011254883, 2.23379014893, 9.24880101318, -1.0, -1.40458015267, -0.519083969466
0.22437405586242676,-0.656011254883, 2.23379014893, 9.24880101318, -1.0, -1.40458015267, -0.519083969466
0.23042798042297363,-0.656011254883, 2.23379014893, 9.24880101318, -1.0, -1.40458015267, -0.519083969466
0.2327871322631836,-0.656011254883, 2.23379014893, 9.24880101318, -1.0, -1.40458015267, -0.519083969466
0.2347550392150879,-0.656011254883, 2.23379014893, 9.24880101318, -1.0, -1.40458015267, -0.519083969466
0.23659610748291016,-0.656011254883, 2.23379014893, 9.24880101318, -1.0, -1.40458015267, -0.519083969466
0.23983407020568848,-0.656011254883, 2.23379014893, 9.24880101318, -1.0, -1.40458015267, -0.519083969466
0.2422630786895752,-0.656011254883, 2.23379014893, 9.24880101318, -1.0, -1.40458015267, -0.519083969466
0.2442631721496582,-0.656011254883, 2.23379014893, 9.24880101318, -1.0, -1.40458015267, -0.519083969466
0.24631118774414062,-0.656011254883, 2.23379014893, 9.24880101318, -1.0, -1.40458015267, -0.519083969466
0.24890518188476562,-0.656011254883, 2.23379014893, 9.24880101318, -1.0, -1.40458015267, -0.519083969466
0.2519211769104004,-0.61770402832, 2.25054956055, 9.27034882812, -0.87786259542, -1.54961832061, -0.427480916031
0.2539520263671875,-0.61770402832, 2.25054956055, 9.27034882812, -0.87786259542, -1.54961832061, -0.427480916031
0.2559230327606201,-0.61770402832, 2.25054956055, 9.27034882812, -0.87786259542, -1.54961832061, -0.427480916031
0.25780606269836426,-0.61770402832, 2.25054956055, 9.27034882812, -0.87786259542, -1.54961832061, -0.427480916031
0.2589271068572998,-0.61770402832, 2.25054956055, 9.27034882812, -0.87786259542, -1.54961832061, -0.427480916031
0.260667085647583,-0.61770402832, 2.25054956055, 9.27034882812, -0.87786259542, -1.54961832061, -0.427480916031
0.263228178024292,-0.61770402832, 2.25054956055, 9.27034882812, -0.87786259542, -1.54961832061, -0.427480916031
0.26592302322387695,-0.61770402832, 2.25054956055, 9.27034882812, -0.87786259542, -1.54961832061, -0.427480916031
0.26906704902648926,-0.61770402832, 2.25054956055, 9.27034882812, -0.87786259542, -1.54961832061, -0.427480916031
0.27274203300476074,-0.61770402832, 2.25054956055, 9.27034882812, -0.87786259542, -1.54961832061, -0.427480916031
0.2796361446380615,-0.61770402832, 2.25054956055, 9.27034882812, -0.87786259542, -1.54961832061, -0.427480916031
0.28156614303588867,-0.61770402832, 2.25054956055, 9.27034882812, -0.87786259542, -1.54961832061, -0.427480916031
0.284027099609375,-0.61770402832, 2.25054956055, 9.27034882812, -0.87786259542, -1.54961832061, -0.427480916031
0.2859060764312744,-0.61770402832, 2.25054956055, 9.27034882812, -0.87786259542, -1.54961832061, -0.427480916031
0.2878000736236572,-0.61770402832, 2.25054956055, 9.27034882812, -0.87786259542, -1.54961832061, -0.427480916031
0.2901031970977783,-0.61770402832, 2.25054956055, 9.27034882812, -0.87786259542, -1.54961832061, -0.427480916031
0.2921020984649658,-0.61770402832, 2.25054956055, 9.27034882812, -0.87786259542, -1.54961832061, -0.427480916031
0.2941579818725586,-0.61770402832, 2.25054956055, 9.27034882812, -0.87786259542, -1.54961832061, -0.427480916031
0.2959752082824707,-0.61770402832, 2.25054956055, 9.27034882812, -0.87786259542, -1.54961832061, -0.427480916031
0.29772305488586426,-0.61770402832, 2.25054956055, 9.27034882812, -0.87786259542, -1.54961832061, -0.427480916031
0.29921817779541016,-0.61770402832, 2.25054956055, 9.27034882812, -0.87786259542, -1.54961832061, -0.427480916031
0.30112600326538086,-0.61770402832, 2.25054956055, 9.27034882812, -0.87786259542, -1.54961832061, -0.427480916031
0.3026871681213379,-0.61770402832, 2.25054956055, 9.27034882812, -0.87786259542, -1.54961832061, -0.427480916031
0.3041260242462158,-0.61770402832, 2.25054956055, 9.27034882812, -0.87786259542, -1.54961832061, -0.427480916031
0.3055729866027832,-0.61770402832, 2.25054956055, 9.27034882812, -0.87786259542, -1.54961832061, -0.427480916031
0.3072822093963623,-0.61770402832, 2.25054956055, 9.27034882812, -0.87786259542, -1.54961832061, -0.427480916031
0.30898499488830566,-0.61770402832, 2.25054956055, 9.27034882812, -0.87786259542, -1.54961832061, -0.427480916031
0.31041407585144043,-0.61770402832, 2.25054956055, 9.27034882812, -0.87786259542, -1.54961832061, -0.427480916031
0.3116722106933594,-0.61770402832, 2.25054956055, 9.27034882812, -0.87786259542, -1.54961832061, -0.427480916031
0.3128840923309326,-0.61770402832, 2.25054956055, 9.27034882812, -0.87786259542, -1.54961832061, -0.427480916031
0.31415510177612305,-0.61770402832, 2.25054956055, 9.27034882812, -0.87786259542, -1.54961832061, -0.427480916031
0.3153541088104248,-0.61770402832, 2.25054956055, 9.27034882812, -0.87786259542, -1.54961832061, -0.427480916031
0.3168320655822754,-0.61770402832, 2.25054956055, 9.27034882812, -0.87786259542, -1.54961832061, -0.427480916031
0.31824302673339844,-0.61770402832, 2.25054956055, 9.27034882812, -0.87786259542, -1.54961832061, -0.427480916031
0.3197360038757324,-0.61770402832, 2.25054956055, 9.27034882812, -0.87786259542, -1.54961832061, -0.427480916031
0.32120704650878906,-0.61770402832, 2.25054956055, 9.27034882812, -0.87786259542, -1.54961832061, -0.427480916031
0.3226330280303955,-0.61770402832, 2.25054956055, 9.27034882812, -0.87786259542, -1.54961832061, -0.427480916031
0.32404112815856934,-0.61770402832, 2.25054956055, 9.27034882812, -0.87786259542, -1.54961832061, -0.427480916031
0.32533717155456543,-0.61770402832, 2.25054956055, 9.27034882812, -0.87786259542, -1.54961832061, -0.427480916031
0.3267180919647217,-0.61770402832, 2.25054956055, 9.27034882812, -0.87786259542, -1.54961832061, -0.427480916031
0.3282201290130615,-0.61770402832, 2.25054956055, 9.27034882812, -0.87786259542, -1.54961832061, -0.427480916031
0.32955098152160645,-0.61770402832, 2.25054956055, 9.27034882812, -0.87786259542, -1.54961832061, -0.427480916031
0.3316650390625,-0.60573302002, 2.31279880371, 9.21288798828, -0.786259541985, -1.50381679389, -0.320610687023
0.33301520347595215,-0.60573302002, 2.31279880371, 9.21288798828, -0.786259541985, -1.50381679389, -0.320610687023
0.3343040943145752,-0.60573302002, 2.31279880371, 9.21288798828, -0.786259541985, -1.50381679389, -0.320610687023
0.33712100982666016,-0.60573302002, 2.31279880371, 9.21288798828, -0.786259541985, -1.50381679389, -0.320610687023
0.33907604217529297,-0.60573302002, 2.31279880371, 9.21288798828, -0.786259541985, -1.50381679389, -0.320610687023
0.34120798110961914,-0.60573302002, 2.31279880371, 9.21288798828, -0.786259541985, -1.50381679389, -0.320610687023
0.34355711936950684,-0.60573302002, 2.31279880371, 9.21288798828, -0.786259541985, -1.50381679389, -0.320610687023
0.34589314460754395,-0.60573302002, 2.31279880371, 9.21288798828, -0.786259541985, -1.50381679389, -0.320610687023
0.34803009033203125,-0.60573302002, 2.31279880371, 9.21288798828, -0.786259541985, -1.50381679389, -0.320610687023
0.3506631851196289,-0.60573302002, 2.31279880371, 9.21288798828, -0.786259541985, -1.50381679389, -0.320610687023
0.3521080017089844,-0.60573302002, 2.31279880371, 9.21288798828, -0.786259541985, -1.50381679389, -0.320610687023
0.3546299934387207,-0.60573302002, 2.31279880371, 9.21288798828, -0.786259541985, -1.50381679389, -0.320610687023
0.358288049697876,-0.60573302002, 2.31279880371, 9.21288798828, -0.786259541985, -1.50381679389, -0.320610687023
0.3614461421966553,-0.60573302002, 2.31279880371, 9.21288798828, -0.786259541985, -1.50381679389, -0.320610687023
0.3776090145111084,-0.60573302002, 2.31279880371, 9.21288798828, -0.786259541985, -1.50381679389, -0.320610687023
0.3820760250091553,-0.60573302002, 2.31279880371, 9.21288798828, -0.786259541985, -1.50381679389, -0.320610687023
0.38653111457824707,-0.60573302002, 2.31279880371, 9.21288798828, -0.786259541985, -1.50381679389, -0.320610687023
0.38878297805786133,-0.60573302002, 2.31279880371, 9.21288798828, -0.786259541985, -1.50381679389, -0.320610687023
0.39089298248291016,-0.60573302002, 2.31279880371, 9.21288798828, -0.786259541985, -1.50381679389, -0.320610687023
0.39362406730651855,-0.60573302002, 2.31279880371, 9.21288798828, -0.786259541985, -1.50381679389, -0.320610687023
0.39600300788879395,-0.60573302002, 2.31279880371, 9.21288798828, -0.786259541985, -1.50381679389, -0.320610687023
0.3983790874481201,-0.60573302002, 2.31279880371, 9.21288798828, -0.786259541985, -1.50381679389, -0.320610687023
0.4007260799407959,-0.60573302002, 2.31279880371, 9.21288798828, -0.786259541985, -1.50381679389, -0.320610687023
0.4031960964202881,-0.60573302002, 2.31279880371, 9.21288798828, -0.786259541985, -1.50381679389, -0.320610687023
0.4057650566101074,-0.60573302002, 2.31279880371, 9.21288798828, -0.786259541985, -1.50381679389, -0.320610687023
0.40798020362854004,-0.60573302002, 2.31279880371, 9.21288798828, -0.786259541985, -1.50381679389, -0.320610687023
0.41126418113708496,-0.60573302002, 2.31279880371, 9.21288798828, -0.786259541985, -1.50381679389, -0.320610687023
0.41348910331726074,-0.60573302002, 2.31279880371, 9.21288798828, -0.786259541985, -1.50381679389, -0.320610687023
0.41566014289855957,-0.60573302002, 2.31279880371, 9.21288798828, -0.786259541985, -1.50381679389, -0.320610687023
0.4177839756011963,-0.60573302002, 2.31279880371, 9.21288798828, -0.786259541985, -1.50381679389, -0.320610687023
0.41945314407348633,-0.60573302002, 2.31279880371, 9.21288798828, -0.786259541985, -1.50381679389, -0.320610687023
0.4210929870605469,-0.60573302002, 2.31279880371, 9.21288798828, -0.786259541985, -1.50381679389, -0.320610687023
0.42560601234436035,-0.60573302002, 2.31279880371, 9.21288798828, -0.786259541985, -1.50381679389, -0.320610687023
0.43706202507019043,-0.667982263184, 2.30322199707, 9.24640681152, -0.854961832061, -1.74045801527, -0.412213740458
0.4475710391998291,-0.667982263184, 2.30322199707, 9.24640681152, -0.854961832061, -1.74045801527, -0.412213740458
0.4496440887451172,-0.667982263184, 2.30322199707, 9.24640681152, -0.854961832061, -1.74045801527, -0.412213740458
0.4517481327056885,-0.667982263184, 2.30322199707, 9.24640681152, -0.854961832061, -1.74045801527, -0.412213740458
0.45444416999816895,-0.667982263184, 2.30322199707, 9.24640681152, -0.854961832061, -1.74045801527, -0.412213740458
0.456928014755249,-0.667982263184, 2.30322199707, 9.24640681152, -0.854961832061, -1.74045801527, -0.412213740458
0.4593970775604248,-0.667982263184, 2.30322199707, 9.24640681152, -0.854961832061, -1.74045801527, -0.412213740458
0.4616580009460449,-0.667982263184, 2.30322199707, 9.24640681152, -0.854961832061, -1.74045801527, -0.412213740458
0.46495699882507324,-0.667982263184, 2.30322199707, 9.24640681152, -0.854961832061, -1.74045801527, -0.412213740458
0.4677300453186035,-0.667982263184, 2.30322199707, 9.24640681152, -0.854961832061, -1.74045801527, -0.412213740458
0.473067045211792,-0.667982263184, 2.30322199707, 9.24640681152, -0.854961832061, -1.74045801527, -0.412213740458
0.47495007514953613,-0.667982263184, 2.30322199707, 9.24640681152, -0.854961832061, -1.74045801527, -0.412213740458
0.4775960445404053,-0.667982263184, 2.30322199707, 9.24640681152, -0.854961832061, -1.74045801527, -0.412213740458
0.4797661304473877,-0.667982263184, 2.30322199707, 9.24640681152, -0.854961832061, -1.74045801527, -0.412213740458
0.481701135635376,-0.667982263184, 2.30322199707, 9.24640681152, -0.854961832061, -1.74045801527, -0.412213740458
0.48300909996032715,-0.667982263184, 2.30322199707, 9.24640681152, -0.854961832061, -1.74045801527, -0.412213740458
0.48462510108947754,-0.667982263184, 2.30322199707, 9.24640681152, -0.854961832061, -1.74045801527, -0.412213740458
0.48744702339172363,-0.667982263184, 2.30322199707, 9.24640681152, -0.854961832061, -1.74045801527, -0.412213740458
0.4916341304779053,-0.667982263184, 2.30322199707, 9.24640681152, -0.854961832061, -1.74045801527, -0.412213740458
0.49567413330078125,-0.667982263184, 2.30322199707, 9.24640681152, -0.854961832061, -1.74045801527, -0.412213740458
0.4984300136566162,-0.667982263184, 2.30322199707, 9.24640681152, -0.854961832061, -1.74045801527, -0.412213740458
0.5024881362915039,-0.667982263184, 2.30322199707, 9.24640681152, -0.854961832061, -1.74045801527, -0.412213740458
0.5090219974517822,-0.667982263184, 2.30322199707, 9.24640681152, -0.854961832061, -1.74045801527, -0.412213740458
0.5116260051727295,-0.667982263184, 2.30322199707, 9.24640681152, -0.854961832061, -1.74045801527, -0.412213740458
0.5140280723571777,-0.667982263184, 2.30322199707, 9.24640681152, -0.854961832061, -1.74045801527, -0.412213740458
0.5158901214599609,-0.667982263184, 2.30322199707, 9.24640681152, -0.854961832061, -1.74045801527, -0.412213740458
0.5175931453704834,-0.667982263184, 2.30322199707, 9.24640681152, -0.854961832061, -1.74045801527, -0.412213740458
0.5196690559387207,-0.667982263184, 2.30322199707, 9.24640681152, -0.854961832061, -1.74045801527, -0.412213740458
0.5216870307922363,-0.667982263184, 2.30322199707, 9.24640681152, -0.854961832061, -1.74045801527, -0.412213740458
0.5236411094665527,-0.667982263184, 2.30322199707, 9.24640681152, -0.854961832061, -1.74045801527, -0.412213740458
0.5257751941680908,-0.667982263184, 2.30322199707, 9.24640681152, -0.854961832061, -1.74045801527, -0.412213740458
0.5280170440673828,-0.667982263184, 2.30322199707, 9.24640681152, -0.854961832061, -1.74045801527, -0.412213740458
0.530128002166748,-0.667982263184, 2.30322199707, 9.24640681152, -0.854961832061, -1.74045801527, -0.412213740458
0.5328559875488281,-0.667982263184, 2.30322199707, 9.24640681152, -0.854961832061, -1.74045801527, -0.412213740458
0.5359551906585693,-0.660799658203, 2.26012636719, 9.23683000488, -1.03816793893, -1.35114503817, -0.580152671756
0.5395400524139404,-0.660799658203, 2.26012636719, 9.23683000488, -1.03816793893, -1.35114503817, -0.580152671756
0.5416960716247559,-0.660799658203, 2.26012636719, 9.23683000488, -1.03816793893, -1.35114503817, -0.580152671756
0.5437850952148438,-0.660799658203, 2.26012636719, 9.23683000488, -1.03816793893, -1.35114503817, -0.580152671756
0.545881986618042,-0.660799658203, 2.26012636719, 9.23683000488, -1.03816793893, -1.35114503817, -0.580152671756
0.550724983215332,-0.660799658203, 2.26012636719, 9.23683000488, -1.03816793893, -1.35114503817, -0.580152671756
0.5521080493927002,-0.660799658203, 2.26012636719, 9.23683000488, -1.03816793893, -1.35114503817, -0.580152671756
0.5539360046386719,-0.660799658203, 2.26012636719, 9.23683000488, -1.03816793893, -1.35114503817, -0.580152671756
0.5571770668029785,-0.660799658203, 2.26012636719, 9.23683000488, -1.03816793893, -1.35114503817, -0.580152671756
0.5607490539550781,-0.660799658203, 2.26012636719, 9.23683000488, -1.03816793893, -1.35114503817, -0.580152671756
0.5648691654205322,-0.660799658203, 2.26012636719, 9.23683000488, -1.03816793893, -1.35114503817, -0.580152671756
0.5700922012329102,-0.660799658203, 2.26012636719, 9.23683000488, -1.03816793893, -1.35114503817, -0.580152671756
0.5773870944976807,-0.660799658203, 2.26012636719, 9.23683000488, -1.03816793893, -1.35114503817, -0.580152671756
0.5798461437225342,-0.660799658203, 2.26012636719, 9.23683000488, -1.03816793893, -1.35114503817, -0.580152671756
0.5816671848297119,-0.660799658203, 2.26012636719, 9.23683000488, -1.03816793893, -1.35114503817, -0.580152671756
0.5842561721801758,-0.660799658203, 2.26012636719, 9.23683000488, -1.03816793893, -1.35114503817, -0.580152671756
0.5864620208740234,-0.660799658203, 2.26012636719, 9.23683000488, -1.03816793893, -1.35114503817, -0.580152671756
0.5882141590118408,-0.660799658203, 2.26012636719, 9.23683000488, -1.03816793893, -1.35114503817, -0.580152671756
0.5905971527099609,-0.660799658203, 2.26012636719, 9.23683000488, -1.03816793893, -1.35114503817, -0.580152671756
0.5926480293273926,-0.660799658203, 2.26012636719, 9.23683000488, -1.03816793893, -1.35114503817, -0.580152671756
0.5946691036224365,-0.660799658203, 2.26012636719, 9.23683000488, -1.03816793893, -1.35114503817, -0.580152671756
0.5964200496673584,-0.660799658203, 2.26012636719, 9.23683000488, -1.03816793893, -1.35114503817, -0.580152671756
0.5979092121124268,-0.660799658203, 2.26012636719, 9.23683000488, -1.03816793893, -1.35114503817, -0.580152671756
0.5995440483093262,-0.660799658203, 2.26012636719, 9.23683000488, -1.03816793893, -1.35114503817, -0.580152671756
0.6022400856018066,-0.660799658203, 2.26012636719, 9.23683000488, -1.03816793893, -1.35114503817, -0.580152671756
0.6046249866485596,-0.660799658203, 2.26012636719, 9.23683000488, -1.03816793893, -1.35114503817, -0.580152671756
0.6064331531524658,-0.660799658203, 2.26012636719, 9.23683000488, -1.03816793893, -1.35114503817, -0.580152671756
0.6085081100463867,-0.660799658203, 2.26012636719, 9.23683000488, -1.03816793893, -1.35114503817, -0.580152671756
0.6106460094451904,-0.660799658203, 2.26012636719, 9.23683000488, -1.03816793893, -1.35114503817, -0.580152671756
0.6126902103424072,-0.660799658203, 2.26012636719, 9.23683000488, -1.03816793893, -1.35114503817, -0.580152671756
0.6145939826965332,-0.660799658203, 2.26012636719, 9.23683000488, -1.03816793893, -1.35114503817, -0.580152671756
0.6161191463470459,-0.660799658203, 2.26012636719, 9.23683000488, -1.03816793893, -1.35114503817, -0.580152671756
0.61775803565979,-0.660799658203, 2.26012636719, 9.23683000488, -1.03816793893, -1.35114503817, -0.580152671756
0.6191010475158691,-0.660799658203, 2.26012636719, 9.23683000488, -1.03816793893, -1.35114503817, -0.580152671756
0.6209402084350586,-0.660799658203, 2.26012636719, 9.23683000488, -1.03816793893, -1.35114503817, -0.580152671756
0.6236991882324219,-0.660799658203, 2.26012636719, 9.23683000488, -1.03816793893, -1.35114503817, -0.580152671756
0.6268270015716553,-0.660799658203, 2.26012636719, 9.23683000488, -1.03816793893, -1.35114503817, -0.580152671756
0.6305661201477051,-0.660799658203, 2.26012636719, 9.23683000488, -1.03816793893, -1.35114503817, -0.580152671756
0.6356010437011719,-0.660799658203, 2.26012636719, 9.23683000488, -1.03816793893, -1.35114503817, -0.580152671756
0.6421141624450684,-0.495599743652, 2.15238729248, 9.27753143311, -0.977099236641, -1.47328244275, -0.358778625954
0.6434991359710693,-0.495599743652, 2.15238729248, 9.27753143311, -0.977099236641, -1.47328244275, -0.358778625954
0.6447920799255371,-0.495599743652, 2.15238729248, 9.27753143311, -0.977099236641, -1.47328244275, -0.358778625954
0.6461331844329834,-0.495599743652, 2.15238729248, 9.27753143311, -0.977099236641, -1.47328244275, -0.358778625954
0.6477031707763672,-0.495599743652, 2.15238729248, 9.27753143311, -0.977099236641, -1.47328244275, -0.358778625954
0.6491332054138184,-0.495599743652, 2.15238729248, 9.27753143311, -0.977099236641, -1.47328244275, -0.358778625954
0.650299072265625,-0.495599743652, 2.15238729248, 9.27753143311, -0.977099236641, -1.47328244275, -0.358778625954
0.6514160633087158,-0.495599743652, 2.15238729248, 9.27753143311, -0.977099236641, -1.47328244275, -0.358778625954
0.6527860164642334,-0.495599743652, 2.15238729248, 9.27753143311, -0.977099236641, -1.47328244275, -0.358778625954
0.6541650295257568,-0.495599743652, 2.15238729248, 9.27753143311, -0.977099236641, -1.47328244275, -0.358778625954
0.6555430889129639,-0.495599743652, 2.15238729248, 9.27753143311, -0.977099236641, -1.47328244275, -0.358778625954
0.6569361686706543,-0.495599743652, 2.15238729248, 9.27753143311, -0.977099236641, -1.47328244275, -0.358778625954
0.6583430767059326,-0.495599743652, 2.15238729248, 9.27753143311, -0.977099236641, -1.47328244275, -0.358778625954
0.6596541404724121,-0.495599743652, 2.15238729248, 9.27753143311, -0.977099236641, -1.47328244275, -0.358778625954
0.6612842082977295,-0.495599743652, 2.15238729248, 9.27753143311, -0.977099236641, -1.47328244275, -0.358778625954
0.6626842021942139,-0.495599743652, 2.15238729248, 9.27753143311, -0.977099236641, -1.47328244275, -0.358778625954
0.6639750003814697,-0.495599743652, 2.15238729248, 9.27753143311, -0.977099236641, -1.47328244275, -0.358778625954
0.6655189990997314,-0.495599743652, 2.15238729248, 9.27753143311, -0.977099236641, -1.47328244275, -0.358778625954
0.667011022567749,-0.495599743652, 2.15238729248, 9.27753143311, -0.977099236641, -1.47328244275, -0.358778625954
0.668201208114624,-0.495599743652, 2.15238729248, 9.27753143311, -0.977099236641, -1.47328244275, -0.358778625954
0.669497013092041,-0.495599743652, 2.15238729248, 9.27753143311, -0.977099236641, -1.47328244275, -0.358778625954
0.6724491119384766,-0.495599743652, 2.15238729248, 9.27753143311, -0.977099236641, -1.47328244275, -0.358778625954
0.6747140884399414,-0.495599743652, 2.15238729248, 9.27753143311, -0.977099236641, -1.47328244275, -0.358778625954
0.6774539947509766,-0.495599743652, 2.15238729248, 9.27753143311, -0.977099236641, -1.47328244275, -0.358778625954
0.679656982421875,-0.495599743652, 2.15238729248, 9.27753143311, -0.977099236641, -1.47328244275, -0.358778625954
0.681908130645752,-0.495599743652, 2.15238729248, 9.27753143311, -0.977099236641, -1.47328244275, -0.358778625954
0.6840600967407227,-0.495599743652, 2.15238729248, 9.27753143311, -0.977099236641, -1.47328244275, -0.358778625954
0.686237096786499,-0.495599743652, 2.15238729248, 9.27753143311, -0.977099236641, -1.47328244275, -0.358778625954
0.688431978225708,-0.495599743652, 2.15238729248, 9.27753143311, -0.977099236641, -1.47328244275, -0.358778625954
0.6906821727752686,-0.495599743652, 2.15238729248, 9.27753143311, -0.977099236641, -1.47328244275, -0.358778625954
0.6928801536560059,-0.495599743652, 2.15238729248, 9.27753143311, -0.977099236641, -1.47328244275, -0.358778625954
0.6958670616149902,-0.495599743652, 2.15238729248, 9.27753143311, -0.977099236641, -1.47328244275, -0.358778625954
0.6989321708679199,-0.495599743652, 2.15238729248, 9.27753143311, -0.977099236641, -1.47328244275, -0.358778625954
0.7010049819946289,-0.495599743652, 2.15238729248, 9.27753143311, -0.977099236641, -1.47328244275, -0.358778625954
0.7032630443572998,-0.495599743652, 2.15238729248, 9.27753143311, -0.977099236641, -1.47328244275, -0.358778625954
0.7055180072784424,-0.495599743652, 2.15238729248, 9.27753143311, -0.977099236641, -1.47328244275, -0.358778625954
0.7078771591186523,-0.495599743652, 2.15238729248, 9.27753143311, -0.977099236641, -1.47328244275, -0.358778625954
0.7094180583953857,-0.495599743652, 2.15238729248, 9.27753143311, -0.977099236641, -1.47328244275, -0.358778625954
0.7110481262207031,-0.495599743652, 2.15238729248, 9.27753143311, -0.977099236641, -1.47328244275, -0.358778625954
0.7132341861724854,-0.495599743652, 2.15238729248, 9.27753143311, -0.977099236641, -1.47328244275, -0.358778625954
0.7175672054290771,-0.495599743652, 2.15238729248, 9.27753143311, -0.977099236641, -1.47328244275, -0.358778625954
0.7207901477813721,-0.495599743652, 2.15238729248, 9.27753143311, -0.977099236641, -1.47328244275, -0.358778625954
0.7243661880493164,-0.495599743652, 2.15238729248, 9.27753143311, -0.977099236641, -1.47328244275, -0.358778625954
0.7324399948120117,-0.495599743652, 2.15238729248, 9.27753143311, -0.977099236641, -1.47328244275, -0.358778625954
0.7355132102966309,-0.495599743652, 2.15238729248, 9.27753143311, -0.977099236641, -1.47328244275, -0.358778625954
0.7382831573486328,-0.495599743652, 2.15238729248, 9.27753143311, -0.977099236641, -1.47328244275, -0.358778625954
0.7404170036315918,-0.495599743652, 2.15238729248, 9.27753143311, -0.977099236641, -1.47328244275, -0.358778625954
0.7428112030029297,-0.495599743652, 2.15238729248, 9.27753143311, -0.977099236641, -1.47328244275, -0.358778625954
0.7451419830322266,-0.495599743652, 2.15238729248, 9.27753143311, -0.977099236641, -1.47328244275, -0.358778625954
0.7495310306549072,-0.61530982666, 2.23618435059, 9.26077202148, -1.00763358779, -1.38167938931, -0.450381679389
0.7519710063934326,-0.61530982666, 2.23618435059, 9.26077202148, -1.00763358779, -1.38167938931, -0.450381679389
0.754310131072998,-0.61530982666, 2.23618435059, 9.26077202148, -1.00763358779, -1.38167938931, -0.450381679389
0.7573041915893555,-0.61530982666, 2.23618435059, 9.26077202148, -1.00763358779, -1.38167938931, -0.450381679389
0.7600409984588623,-0.61530982666, 2.23618435059, 9.26077202148, -1.00763358779, -1.38167938931, -0.450381679389
0.7658200263977051,-0.61530982666, 2.23618435059, 9.26077202148, -1.00763358779, -1.38167938931, -0.450381679389
0.7685461044311523,-0.61530982666, 2.23618435059, 9.26077202148, -1.00763358779, -1.38167938931, -0.450381679389
0.7725441455841064,-0.61530982666, 2.23618435059, 9.26077202148, -1.00763358779, -1.38167938931, -0.450381679389
0.7743210792541504,-0.61530982666, 2.23618435059, 9.26077202148, -1.00763358779, -1.38167938931, -0.450381679389
0.7768549919128418,-0.61530982666, 2.23618435059, 9.26077202148, -1.00763358779, -1.38167938931, -0.450381679389
0.7811369895935059,-0.61530982666, 2.23618435059, 9.26077202148, -1.00763358779, -1.38167938931, -0.450381679389
0.7842321395874023,-0.61530982666, 2.23618435059, 9.26077202148, -1.00763358779, -1.38167938931, -0.450381679389
0.7875909805297852,-0.61530982666, 2.23618435059, 9.26077202148, -1.00763358779, -1.38167938931, -0.450381679389
0.7936751842498779,-0.61530982666, 2.23618435059, 9.26077202148, -1.00763358779, -1.38167938931, -0.450381679389
0.7987351417541504,-0.61530982666, 2.23618435059, 9.26077202148, -1.00763358779, -1.38167938931, -0.450381679389
0.8011140823364258,-0.61530982666, 2.23618435059, 9.26077202148, -1.00763358779, -1.38167938931, -0.450381679389
0.8036880493164062,-0.61530982666, 2.23618435059, 9.26077202148, -1.00763358779, -1.38167938931, -0.450381679389
0.8059020042419434,-0.61530982666, 2.23618435059, 9.26077202148, -1.00763358779, -1.38167938931, -0.450381679389
0.8087830543518066,-0.61530982666, 2.23618435059, 9.26077202148, -1.00763358779, -1.38167938931, -0.450381679389
0.8111979961395264,-0.61530982666, 2.23618435059, 9.26077202148, -1.00763358779, -1.38167938931, -0.450381679389
0.8134791851043701,-0.61530982666, 2.23618435059, 9.26077202148, -1.00763358779, -1.38167938931, -0.450381679389
0.8164751529693604,-0.61530982666, 2.23618435059, 9.26077202148, -1.00763358779, -1.38167938931, -0.450381679389
0.8194470405578613,-0.61530982666, 2.23618435059, 9.26077202148, -1.00763358779, -1.38167938931, -0.450381679389
0.8221089839935303,-0.61530982666, 2.23618435059, 9.26077202148, -1.00763358779, -1.38167938931, -0.450381679389
0.824843168258667,-0.61530982666, 2.23618435059, 9.26077202148, -1.00763358779, -1.38167938931, -0.450381679389
0.827660083770752,-0.61530982666, 2.23618435059, 9.26077202148, -1.00763358779, -1.38167938931, -0.450381679389
0.8304870128631592,-0.61530982666, 2.23618435059, 9.26077202148, -1.00763358779, -1.38167938931, -0.450381679389
0.8333621025085449,-0.61530982666, 2.23618435059, 9.26077202148, -1.00763358779, -1.38167938931, -0.450381679389
0.8376240730285645,-0.660799658203, 2.22181914063, 9.08360109863, -0.832061068702, -1.62595419847, -0.396946564885
0.8401110172271729,-0.660799658203, 2.22181914063, 9.08360109863, -0.832061068702, -1.62595419847, -0.396946564885
0.8458201885223389,-0.660799658203, 2.22181914063, 9.08360109863, -0.832061068702, -1.62595419847, -0.396946564885
0.8493881225585938,-0.660799658203, 2.22181914063, 9.08360109863, -0.832061068702, -1.62595419847, -0.396946564885
0.852363109588623,-0.660799658203, 2.22181914063, 9.08360109863, -0.832061068702, -1.62595419847, -0.396946564885
0.8588871955871582,-0.660799658203, 2.22181914063, 9.08360109863, -0.832061068702, -1.62595419847, -0.396946564885
0.8628091812133789,-0.660799658203, 2.22181914063, 9.08360109863, -0.832061068702, -1.62595419847, -0.396946564885
0.8654580116271973,-0.660799658203, 2.22181914063, 9.08360109863, -0.832061068702, -1.62595419847, -0.396946564885
0.868117094039917,-0.660799658203, 2.22181914063, 9.08360109863, -0.832061068702, -1.62595419847, -0.396946564885
0.8704690933227539,-0.660799658203, 2.22181914063, 9.08360109863, -0.832061068702, -1.62595419847, -0.396946564885
0.8750271797180176,-0.660799658203, 2.22181914063, 9.08360109863, -0.832061068702, -1.62595419847, -0.396946564885
0.878364086151123,-0.660799658203, 2.22181914063, 9.08360109863, -0.832061068702, -1.62595419847, -0.396946564885
0.8809890747070312,-0.660799658203, 2.22181914063, 9.08360109863, -0.832061068702, -1.62595419847, -0.396946564885
0.8835470676422119,-0.660799658203, 2.22181914063, 9.08360109863, -0.832061068702, -1.62595419847, -0.396946564885
0.8857409954071045,-0.660799658203, 2.22181914063, 9.08360109863, -0.832061068702, -1.62595419847, -0.396946564885
0.8883349895477295,-0.660799658203, 2.22181914063, 9.08360109863, -0.832061068702, -1.62595419847, -0.396946564885
0.890801191329956,-0.660799658203, 2.22181914063, 9.08360109863, -0.832061068702, -1.62595419847, -0.396946564885
0.893179178237915,-0.660799658203, 2.22181914063, 9.08360109863, -0.832061068702, -1.62595419847, -0.396946564885
0.8963720798492432,-0.660799658203, 2.22181914063, 9.08360109863, -0.832061068702, -1.62595419847, -0.396946564885
0.8993589878082275,-0.660799658203, 2.22181914063, 9.08360109863, -0.832061068702, -1.62595419847, -0.396946564885
0.9016640186309814,-0.660799658203, 2.22181914063, 9.08360109863, -0.832061068702, -1.62595419847, -0.396946564885
0.9030191898345947,-0.660799658203, 2.22181914063, 9.08360109863, -0.832061068702, -1.62595419847, -0.396946564885
0.9054181575775146,-0.660799658203, 2.22181914063, 9.08360109863, -0.832061068702, -1.62595419847, -0.396946564885
0.9097421169281006,-0.660799658203, 2.22181914063, 9.08360109863, -0.832061068702, -1.62595419847, -0.396946564885
0.9125580787658691,-0.660799658203, 2.22181914063, 9.08360109863, -0.832061068702, -1.62595419847, -0.396946564885
0.9159409999847412,-0.660799658203, 2.22181914063, 9.08360109863, -0.832061068702, -1.62595419847, -0.396946564885
0.9202921390533447,-0.660799658203, 2.22181914063, 9.08360109863, -0.832061068702, -1.62595419847, -0.396946564885
0.9275290966033936,-0.660799658203, 2.22181914063, 9.08360109863, -0.832061068702, -1.62595419847, -0.396946564885
0.9304311275482178,-0.660799658203, 2.22181914063, 9.08360109863, -0.832061068702, -1.62595419847, -0.396946564885
0.9329280853271484,-0.660799658203, 2.22181914063, 9.08360109863, -0.832061068702, -1.62595419847, -0.396946564885
0.9378211498260498,-0.62009822998, 2.27449157715, 9.25598361816, -0.679389312977, -1.49618320611, -0.549618320611
0.9417681694030762,-0.62009822998, 2.27449157715, 9.25598361816, -0.679389312977, -1.49618320611, -0.549618320611
0.9467880725860596,-0.62009822998, 2.27449157715, 9.25598361816, -0.679389312977, -1.49618320611, -0.549618320611
0.9492321014404297,-0.62009822998, 2.27449157715, 9.25598361816, -0.679389312977, -1.49618320611, -0.549618320611
0.9514281749725342,-0.62009822998, 2.27449157715, 9.25598361816, -0.679389312977, -1.49618320611, -0.549618320611
0.953794002532959,-0.62009822998, 2.27449157715, 9.25598361816, -0.679389312977, -1.49618320611, -0.549618320611
0.9563682079315186,-0.62009822998, 2.27449157715, 9.25598361816, -0.679389312977, -1.49618320611, -0.549618320611
0.9588620662689209,-0.62009822998, 2.27449157715, 9.25598361816, -0.679389312977, -1.49618320611, -0.549618320611
0.9610941410064697,-0.62009822998, 2.27449157715, 9.25598361816, -0.679389312977, -1.49618320611, -0.549618320611
0.9631750583648682,-0.62009822998, 2.27449157715, 9.25598361816, -0.679389312977, -1.49618320611, -0.549618320611
0.9646689891815186,-0.62009822998, 2.27449157715, 9.25598361816, -0.679389312977, -1.49618320611, -0.549618320611
0.967008113861084,-0.62009822998, 2.27449157715, 9.25598361816, -0.679389312977, -1.49618320611, -0.549618320611
0.969851016998291,-0.62009822998, 2.27449157715, 9.25598361816, -0.679389312977, -1.49618320611, -0.549618320611
0.9751131534576416,-0.62009822998, 2.27449157715, 9.25598361816, -0.679389312977, -1.49618320611, -0.549618320611
0.9794800281524658,-0.62009822998, 2.27449157715, 9.25598361816, -0.679389312977, -1.49618320611, -0.549618320611
0.9857611656188965,-0.62009822998, 2.27449157715, 9.25598361816, -0.679389312977, -1.49618320611, -0.549618320611
0.9903450012207031,-0.62009822998, 2.27449157715, 9.25598361816, -0.679389312977, -1.49618320611, -0.549618320611
0.9939119815826416,-0.62009822998, 2.27449157715, 9.25598361816, -0.679389312977, -1.49618320611, -0.549618320611
0.9968860149383545,-0.62009822998, 2.27449157715, 9.25598361816, -0.679389312977, -1.49618320611, -0.549618320611
0.9991121292114258,-0.62009822998, 2.27449157715, 9.25598361816, -0.679389312977, -1.49618320611, -0.549618320611
1.0013811588287354,-0.62009822998, 2.27449157715, 9.25598361816, -0.679389312977, -1.49618320611, -0.549618320611
1.0044560432434082,-0.62009822998, 2.27449157715, 9.25598361816, -0.679389312977, -1.49618320611, -0.549618320611
1.0073051452636719,-0.62009822998, 2.27449157715, 9.25598361816, -0.679389312977, -1.49618320611, -0.549618320611
1.0093040466308594,-0.62009822998, 2.27449157715, 9.25598361816, -0.679389312977, -1.49618320611, -0.549618320611
1.0115129947662354,-0.62009822998, 2.27449157715, 9.25598361816, -0.679389312977, -1.49618320611, -0.549618320611
1.0142509937286377,-0.62009822998, 2.27449157715, 9.25598361816, -0.679389312977, -1.49618320611, -0.549618320611
1.016740083694458,-0.62009822998, 2.27449157715, 9.25598361816, -0.679389312977, -1.49618320611, -0.549618320611
1.018963098526001,-0.62009822998, 2.27449157715, 9.25598361816, -0.679389312977, -1.49618320611, -0.549618320611
1.0214531421661377,-0.62009822998, 2.27449157715, 9.25598361816, -0.679389312977, -1.49618320611, -0.549618320611
1.0242671966552734,-0.62009822998, 2.27449157715, 9.25598361816, -0.679389312977, -1.49618320611, -0.549618320611
1.0267870426177979,-0.62009822998, 2.27449157715, 9.25598361816, -0.679389312977, -1.49618320611, -0.549618320611
1.0283660888671875,-0.62009822998, 2.27449157715, 9.25598361816, -0.679389312977, -1.49618320611, -0.549618320611
1.0309782028198242,-0.62009822998, 2.27449157715, 9.25598361816, -0.679389312977, -1.49618320611, -0.549618320611
1.0344820022583008,-0.62009822998, 2.27449157715, 9.25598361816, -0.679389312977, -1.49618320611, -0.549618320611
1.03981614112854,-0.663193859863, 2.31758720703, 9.28231983643, -0.763358778626, -1.51908396947, -0.534351145038
1.0453951358795166,-0.663193859863, 2.31758720703, 9.28231983643, -0.763358778626, -1.51908396947, -0.534351145038
1.055083990097046,-0.663193859863, 2.31758720703, 9.28231983643, -0.763358778626, -1.51908396947, -0.534351145038
1.0579030513763428,-0.663193859863, 2.31758720703, 9.28231983643, -0.763358778626, -1.51908396947, -0.534351145038
1.0605010986328125,-0.663193859863, 2.31758720703, 9.28231983643, -0.763358778626, -1.51908396947, -0.534351145038
1.0627269744873047,-0.663193859863, 2.31758720703, 9.28231983643, -0.763358778626, -1.51908396947, -0.534351145038
1.0653760433197021,-0.663193859863, 2.31758720703, 9.28231983643, -0.763358778626, -1.51908396947, -0.534351145038
1.0678210258483887,-0.663193859863, 2.31758720703, 9.28231983643, -0.763358778626, -1.51908396947, -0.534351145038
1.06998610496521,-0.663193859863, 2.31758720703, 9.28231983643, -0.763358778626, -1.51908396947, -0.534351145038
1.074855089187622,-0.663193859863, 2.31758720703, 9.28231983643, -0.763358778626, -1.51908396947, -0.534351145038
1.0782082080841064,-0.663193859863, 2.31758720703, 9.28231983643, -0.763358778626, -1.51908396947, -0.534351145038
1.080632209777832,-0.663193859863, 2.31758720703, 9.28231983643, -0.763358778626, -1.51908396947, -0.534351145038
1.0832431316375732,-0.663193859863, 2.31758720703, 9.28231983643, -0.763358778626, -1.51908396947, -0.534351145038
1.0854301452636719,-0.663193859863, 2.31758720703, 9.28231983643, -0.763358778626, -1.51908396947, -0.534351145038
1.0886521339416504,-0.663193859863, 2.31758720703, 9.28231983643, -0.763358778626, -1.51908396947, -0.534351145038
1.0901310443878174,-0.663193859863, 2.31758720703, 9.28231983643, -0.763358778626, -1.51908396947, -0.534351145038
1.0917391777038574,-0.663193859863, 2.31758720703, 9.28231983643, -0.763358778626, -1.51908396947, -0.534351145038
1.0945930480957031,-0.663193859863, 2.31758720703, 9.28231983643, -0.763358778626, -1.51908396947, -0.534351145038
1.0998899936676025,-0.663193859863, 2.31758720703, 9.28231983643, -0.763358778626, -1.51908396947, -0.534351145038
1.1043059825897217,-0.663193859863, 2.31758720703, 9.28231983643, -0.763358778626, -1.51908396947, -0.534351145038
1.111119031906128,-0.663193859863, 2.31758720703, 9.28231983643, -0.763358778626, -1.51908396947, -0.534351145038
1.11588716506958,-0.663193859863, 2.31758720703, 9.28231983643, -0.763358778626, -1.51908396947, -0.534351145038
1.1190721988677979,-0.663193859863, 2.31758720703, 9.28231983643, -0.763358778626, -1.51908396947, -0.534351145038
1.1218411922454834,-0.663193859863, 2.31758720703, 9.28231983643, -0.763358778626, -1.51908396947, -0.534351145038
1.1251051425933838,-0.663193859863, 2.31758720703, 9.28231983643, -0.763358778626, -1.51908396947, -0.534351145038
1.1456491947174072,-0.600944616699, 2.25294376221, 9.25837781982, -1.02290076336, -1.50381679389, -0.572519083969
1.148773193359375,-0.600944616699, 2.25294376221, 9.25837781982, -1.02290076336, -1.50381679389, -0.572519083969
1.1516849994659424,-0.600944616699, 2.25294376221, 9.25837781982, -1.02290076336, -1.50381679389, -0.572519083969
1.1557860374450684,-0.600944616699, 2.25294376221, 9.25837781982, -1.02290076336, -1.50381679389, -0.572519083969
1.1575992107391357,-0.600944616699, 2.25294376221, 9.25837781982, -1.02290076336, -1.50381679389, -0.572519083969
1.161417007446289,-0.600944616699, 2.25294376221, 9.25837781982, -1.02290076336, -1.50381679389, -0.572519083969
1.1653361320495605,-0.600944616699, 2.25294376221, 9.25837781982, -1.02290076336, -1.50381679389, -0.572519083969
1.169236183166504,-0.600944616699, 2.25294376221, 9.25837781982, -1.02290076336, -1.50381679389, -0.572519083969
1.1749670505523682,-0.600944616699, 2.25294376221, 9.25837781982, -1.02290076336, -1.50381679389, -0.572519083969
1.1836771965026855,-0.600944616699, 2.25294376221, 9.25837781982, -1.02290076336, -1.50381679389, -0.572519083969
1.1858181953430176,-0.600944616699, 2.25294376221, 9.25837781982, -1.02290076336, -1.50381679389, -0.572519083969
1.1884400844573975,-0.600944616699, 2.25294376221, 9.25837781982, -1.02290076336, -1.50381679389, -0.572519083969
1.1911771297454834,-0.600944616699, 2.25294376221, 9.25837781982, -1.02290076336, -1.50381679389, -0.572519083969
1.1933841705322266,-0.600944616699, 2.25294376221, 9.25837781982, -1.02290076336, -1.50381679389, -0.572519083969
1.1955289840698242,-0.600944616699, 2.25294376221, 9.25837781982, -1.02290076336, -1.50381679389, -0.572519083969
1.1984150409698486,-0.600944616699, 2.25294376221, 9.25837781982, -1.02290076336, -1.50381679389, -0.572519083969
1.2010691165924072,-0.600944616699, 2.25294376221, 9.25837781982, -1.02290076336, -1.50381679389, -0.572519083969
1.2036941051483154,-0.600944616699, 2.25294376221, 9.25837781982, -1.02290076336, -1.50381679389, -0.572519083969
1.206144094467163,-0.600944616699, 2.25294376221, 9.25837781982, -1.02290076336, -1.50381679389, -0.572519083969
1.2090561389923096,-0.600944616699, 2.25294376221, 9.25837781982, -1.02290076336, -1.50381679389, -0.572519083969
1.2116081714630127,-0.600944616699, 2.25294376221, 9.25837781982, -1.02290076336, -1.50381679389, -0.572519083969
1.214353084564209,-0.600944616699, 2.25294376221, 9.25837781982, -1.02290076336, -1.50381679389, -0.572519083969
1.2179641723632812,-0.600944616699, 2.25294376221, 9.25837781982, -1.02290076336, -1.50381679389, -0.572519083969
1.2203631401062012,-0.600944616699, 2.25294376221, 9.25837781982, -1.02290076336, -1.50381679389, -0.572519083969
1.22188401222229,-0.600944616699, 2.25294376221, 9.25837781982, -1.02290076336, -1.50381679389, -0.572519083969
1.2236320972442627,-0.600944616699, 2.25294376221, 9.25837781982, -1.02290076336, -1.50381679389, -0.572519083969
1.2271881103515625,-0.600944616699, 2.25294376221, 9.25837781982, -1.02290076336, -1.50381679389, -0.572519083969
1.230924129486084,-0.600944616699, 2.25294376221, 9.25837781982, -1.02290076336, -1.50381679389, -0.572519083969
1.234011173248291,-0.600944616699, 2.25294376221, 9.25837781982, -1.02290076336, -1.50381679389, -0.572519083969
1.2403690814971924,-0.600944616699, 2.25294376221, 9.25837781982, -1.02290076336, -1.50381679389, -0.572519083969
1.245422124862671,-0.600944616699, 2.25294376221, 9.25837781982, -1.02290076336, -1.50381679389, -0.572519083969
1.2510759830474854,-0.76614453125, 2.21463653564, 9.28710823975, -1.03053435115, -1.54198473282, -0.435114503817
1.2541530132293701,-0.76614453125, 2.21463653564, 9.28710823975, -1.03053435115, -1.54198473282, -0.435114503817
1.2578840255737305,-0.76614453125, 2.21463653564, 9.28710823975, -1.03053435115, -1.54198473282, -0.435114503817
1.2610931396484375,-0.76614453125, 2.21463653564, 9.28710823975, -1.03053435115, -1.54198473282, -0.435114503817
1.2644131183624268,-0.76614453125, 2.21463653564, 9.28710823975, -1.03053435115, -1.54198473282, -0.435114503817
1.2672061920166016,-0.76614453125, 2.21463653564, 9.28710823975, -1.03053435115, -1.54198473282, -0.435114503817
1.272387981414795,-0.76614453125, 2.21463653564, 9.28710823975, -1.03053435115, -1.54198473282, -0.435114503817
1.2749052047729492,-0.76614453125, 2.21463653564, 9.28710823975, -1.03053435115, -1.54198473282, -0.435114503817
1.2790460586547852,-0.76614453125, 2.21463653564, 9.28710823975, -1.03053435115, -1.54198473282, -0.435114503817
1.286163091659546,-0.76614453125, 2.21463653564, 9.28710823975, -1.03053435115, -1.54198473282, -0.435114503817
1.289297103881836,-0.76614453125, 2.21463653564, 9.28710823975, -1.03053435115, -1.54198473282, -0.435114503817
1.2933061122894287,-0.76614453125, 2.21463653564, 9.28710823975, -1.03053435115, -1.54198473282, -0.435114503817
1.2972700595855713,-0.76614453125, 2.21463653564, 9.28710823975, -1.03053435115, -1.54198473282, -0.435114503817
1.30253005027771,-0.76614453125, 2.21463653564, 9.28710823975, -1.03053435115, -1.54198473282, -0.435114503817
1.3086190223693848,-0.76614453125, 2.21463653564, 9.28710823975, -1.03053435115, -1.54198473282, -0.435114503817
1.3117179870605469,-0.76614453125, 2.21463653564, 9.28710823975, -1.03053435115, -1.54198473282, -0.435114503817
1.3148009777069092,-0.76614453125, 2.21463653564, 9.28710823975, -1.03053435115, -1.54198473282, -0.435114503817
1.317507028579712,-0.76614453125, 2.21463653564, 9.28710823975, -1.03053435115, -1.54198473282, -0.435114503817
1.319850206375122,-0.76614453125, 2.21463653564, 9.28710823975, -1.03053435115, -1.54198473282, -0.435114503817
1.3244102001190186,-0.76614453125, 2.21463653564, 9.28710823975, -1.03053435115, -1.54198473282, -0.435114503817
1.3291940689086914,-0.76614453125, 2.21463653564, 9.28710823975, -1.03053435115, -1.54198473282, -0.435114503817
1.3343579769134521,-0.76614453125, 2.21463653564, 9.28710823975, -1.03053435115, -1.54198473282, -0.435114503817
1.3403611183166504,-0.629675036621, 2.26970317383, 9.23922420654, -0.81679389313, -1.43511450382, -0.312977099237
1.3427040576934814,-0.629675036621, 2.26970317383, 9.23922420654, -0.81679389313, -1.43511450382, -0.312977099237
1.3458571434020996,-0.629675036621, 2.26970317383, 9.23922420654, -0.81679389313, -1.43511450382, -0.312977099237
1.350275993347168,-0.629675036621, 2.26970317383, 9.23922420654, -0.81679389313, -1.43511450382, -0.312977099237
1.3514671325683594,-0.629675036621, 2.26970317383, 9.23922420654, -0.81679389313, -1.43511450382, -0.312977099237
1.3529200553894043,-0.629675036621, 2.26970317383, 9.23922420654, -0.81679389313, -1.43511450382, -0.312977099237
1.3543620109558105,-0.629675036621, 2.26970317383, 9.23922420654, -0.81679389313, -1.43511450382, -0.312977099237
1.355924129486084,-0.629675036621, 2.26970317383, 9.23922420654, -0.81679389313, -1.43511450382, -0.312977099237
1.3576281070709229,-0.629675036621, 2.26970317383, 9.23922420654, -0.81679389313, -1.43511450382, -0.312977099237
1.3590810298919678,-0.629675036621, 2.26970317383, 9.23922420654, -0.81679389313, -1.43511450382, -0.312977099237
1.360469102859497,-0.629675036621, 2.26970317383, 9.23922420654, -0.81679389313, -1.43511450382, -0.312977099237
1.3626911640167236,-0.629675036621, 2.26970317383, 9.23922420654, -0.81679389313, -1.43511450382, -0.312977099237
1.3649580478668213,-0.629675036621, 2.26970317383, 9.23922420654, -0.81679389313, -1.43511450382, -0.312977099237
1.3674571514129639,-0.629675036621, 2.26970317383, 9.23922420654, -0.81679389313, -1.43511450382, -0.312977099237
1.3724961280822754,-0.629675036621, 2.26970317383, 9.23922420654, -0.81679389313, -1.43511450382, -0.312977099237
1.3742361068725586,-0.629675036621, 2.26970317383, 9.23922420654, -0.81679389313, -1.43511450382, -0.312977099237
1.3756861686706543,-0.629675036621, 2.26970317383, 9.23922420654, -0.81679389313, -1.43511450382, -0.312977099237
1.3772571086883545,-0.629675036621, 2.26970317383, 9.23922420654, -0.81679389313, -1.43511450382, -0.312977099237
1.3786821365356445,-0.629675036621, 2.26970317383, 9.23922420654, -0.81679389313, -1.43511450382, -0.312977099237
1.3801240921020508,-0.629675036621, 2.26970317383, 9.23922420654, -0.81679389313, -1.43511450382, -0.312977099237
1.3820970058441162,-0.629675036621, 2.26970317383, 9.23922420654, -0.81679389313, -1.43511450382, -0.312977099237
1.3837950229644775,-0.629675036621, 2.26970317383, 9.23922420654, -0.81679389313, -1.43511450382, -0.312977099237
1.3876571655273438,-0.629675036621, 2.26970317383, 9.23922420654, -0.81679389313, -1.43511450382, -0.312977099237
1.3915820121765137,-0.629675036621, 2.26970317383, 9.23922420654, -0.81679389313, -1.43511450382, -0.312977099237
1.3956530094146729,-0.629675036621, 2.26970317383, 9.23922420654, -0.81679389313, -1.43511450382, -0.312977099237
1.4046621322631836,-0.629675036621, 2.26970317383, 9.23922420654, -0.81679389313, -1.43511450382, -0.312977099237
1.40779709815979,-0.629675036621, 2.26970317383, 9.23922420654, -0.81679389313, -1.43511450382, -0.312977099237
1.4108831882476807,-0.629675036621, 2.26970317383, 9.23922420654, -0.81679389313, -1.43511450382, -0.312977099237
1.4134020805358887,-0.629675036621, 2.26970317383, 9.23922420654, -0.81679389313, -1.43511450382, -0.312977099237
1.4159350395202637,-0.629675036621, 2.26970317383, 9.23922420654, -0.81679389313, -1.43511450382, -0.312977099237
1.4186551570892334,-0.629675036621, 2.26970317383, 9.23922420654, -0.81679389313, -1.43511450382, -0.312977099237
1.4227640628814697,-0.629675036621, 2.26970317383, 9.23922420654, -0.81679389313, -1.43511450382, -0.312977099237
1.4271371364593506,-0.629675036621, 2.26970317383, 9.23922420654, -0.81679389313, -1.43511450382, -0.312977099237
1.4358420372009277,-0.603338818359, 2.26730897217, 9.25837781982, -0.893129770992, -1.67175572519, -0.549618320611
1.4431700706481934,-0.603338818359, 2.26730897217, 9.25837781982, -0.893129770992, -1.67175572519, -0.549618320611
1.449836015701294,-0.603338818359, 2.26730897217, 9.25837781982, -0.893129770992, -1.67175572519, -0.549618320611
1.4534211158752441,-0.603338818359, 2.26730897217, 9.25837781982, -0.893129770992, -1.67175572519, -0.549618320611
1.45725417137146,-0.603338818359, 2.26730897217, 9.25837781982, -0.893129770992, -1.67175572519, -0.549618320611
1.466947078704834,-0.603338818359, 2.26730897217, 9.25837781982, -0.893129770992, -1.67175572519, -0.549618320611
1.4743640422821045,-0.603338818359, 2.26730897217, 9.25837781982, -0.893129770992, -1.67175572519, -0.549618320611
1.4772582054138184,-0.603338818359, 2.26730897217, 9.25837781982, -0.893129770992, -1.67175572519, -0.549618320611
1.479828119277954,-0.603338818359, 2.26730897217, 9.25837781982, -0.893129770992, -1.67175572519, -0.549618320611
1.4833290576934814,-0.603338818359, 2.26730897217, 9.25837781982, -0.893129770992, -1.67175572519, -0.549618320611
1.4858651161193848,-0.603338818359, 2.26730897217, 9.25837781982, -0.893129770992, -1.67175572519, -0.549618320611
1.4888269901275635,-0.603338818359, 2.26730897217, 9.25837781982, -0.893129770992, -1.67175572519, -0.549618320611
1.492110013961792,-0.603338818359, 2.26730897217, 9.25837781982, -0.893129770992, -1.67175572519, -0.549618320611
1.4947741031646729,-0.603338818359, 2.26730897217, 9.25837781982, -0.893129770992, -1.67175572519, -0.549618320611
1.497920036315918,-0.603338818359, 2.26730897217, 9.25837781982, -0.893129770992, -1.67175572519, -0.549618320611
1.5007190704345703,-0.603338818359, 2.26730897217, 9.25837781982, -0.893129770992, -1.67175572519, -0.549618320611
1.5036160945892334,-0.603338818359, 2.26730897217, 9.25837781982, -0.893129770992, -1.67175572519, -0.549618320611
1.506465196609497,-0.603338818359, 2.26730897217, 9.25837781982, -0.893129770992, -1.67175572519, -0.549618320611
1.508432149887085,-0.603338818359, 2.26730897217, 9.25837781982, -0.893129770992, -1.67175572519, -0.549618320611
1.5120410919189453,-0.603338818359, 2.26730897217, 9.25837781982, -0.893129770992, -1.67175572519, -0.549618320611
1.5163071155548096,-0.603338818359, 2.26730897217, 9.25837781982, -0.893129770992, -1.67175572519, -0.549618320611
1.520076036453247,-0.603338818359, 2.26730897217, 9.25837781982, -0.893129770992, -1.67175572519, -0.549618320611
1.5314431190490723,-0.603338818359, 2.26730897217, 9.25837781982, -0.893129770992, -1.67175572519, -0.549618320611
1.5375092029571533,-0.603338818359, 2.26730897217, 9.25837781982, -0.893129770992, -1.67175572519, -0.549618320611
1.5433390140533447,-0.490811340332, 2.23618435059, 9.28710823975, -0.847328244275, -1.52671755725, -0.587786259542
1.54581618309021,-0.490811340332, 2.23618435059, 9.28710823975, -0.847328244275, -1.52671755725, -0.587786259542
1.5503261089324951,-0.490811340332, 2.23618435059, 9.28710823975, -0.847328244275, -1.52671755725, -0.587786259542
1.5576050281524658,-0.490811340332, 2.23618435059, 9.28710823975, -0.847328244275, -1.52671755725, -0.587786259542
1.5610840320587158,-0.490811340332, 2.23618435059, 9.28710823975, -0.847328244275, -1.52671755725, -0.587786259542
1.5677180290222168,-0.490811340332, 2.23618435059, 9.28710823975, -0.847328244275, -1.52671755725, -0.587786259542
1.5778000354766846,-0.490811340332, 2.23618435059, 9.28710823975, -0.847328244275, -1.52671755725, -0.587786259542
1.5825810432434082,-0.490811340332, 2.23618435059, 9.28710823975, -0.847328244275, -1.52671755725, -0.587786259542
1.588881015777588,-0.490811340332, 2.23618435059, 9.28710823975, -0.847328244275, -1.52671755725, -0.587786259542
1.5949361324310303,-0.490811340332, 2.23618435059, 9.28710823975, -0.847328244275, -1.52671755725, -0.587786259542
1.5978610515594482,-0.490811340332, 2.23618435059, 9.28710823975, -0.847328244275, -1.52671755725, -0.587786259542
1.6010570526123047,-0.490811340332, 2.23618435059, 9.28710823975, -0.847328244275, -1.52671755725, -0.587786259542
1.6038072109222412,-0.490811340332, 2.23618435059, 9.28710823975, -0.847328244275, -1.52671755725, -0.587786259542
1.6067800521850586,-0.490811340332, 2.23618435059, 9.28710823975, -0.847328244275, -1.52671755725, -0.587786259542
1.6102991104125977,-0.490811340332, 2.23618435059, 9.28710823975, -0.847328244275, -1.52671755725, -0.587786259542
1.6134681701660156,-0.490811340332, 2.23618435059, 9.28710823975, -0.847328244275, -1.52671755725, -0.587786259542
1.6172480583190918,-0.490811340332, 2.23618435059, 9.28710823975, -0.847328244275, -1.52671755725, -0.587786259542
1.6204590797424316,-0.490811340332, 2.23618435059, 9.28710823975, -0.847328244275, -1.52671755725, -0.587786259542
1.626798152923584,-0.490811340332, 2.23618435059, 9.28710823975, -0.847328244275, -1.52671755725, -0.587786259542
1.635986089706421,-0.627280834961, 2.42293208008, 9.46188496094, -0.900763358779, -1.6641221374, -0.511450381679
1.6449999809265137,-0.627280834961, 2.42293208008, 9.46188496094, -0.900763358779, -1.6641221374, -0.511450381679
1.6505210399627686,-0.627280834961, 2.42293208008, 9.46188496094, -0.900763358779, -1.6641221374, -0.511450381679
1.660689115524292,-0.627280834961, 2.42293208008, 9.46188496094, -0.900763358779, -1.6641221374, -0.511450381679
1.6635301113128662,-0.627280834961, 2.42293208008, 9.46188496094, -0.900763358779, -1.6641221374, -0.511450381679
1.666661024093628,-0.627280834961, 2.42293208008, 9.46188496094, -0.900763358779, -1.6641221374, -0.511450381679
1.6694910526275635,-0.627280834961, 2.42293208008, 9.46188496094, -0.900763358779, -1.6641221374, -0.511450381679
1.6775619983673096,-0.627280834961, 2.42293208008, 9.46188496094, -0.900763358779, -1.6641221374, -0.511450381679
1.683035135269165,-0.627280834961, 2.42293208008, 9.46188496094, -0.900763358779, -1.6641221374, -0.511450381679
1.6857810020446777,-0.627280834961, 2.42293208008, 9.46188496094, -0.900763358779, -1.6641221374, -0.511450381679
1.6906712055206299,-0.627280834961, 2.42293208008, 9.46188496094, -0.900763358779, -1.6641221374, -0.511450381679
1.6937720775604248,-0.627280834961, 2.42293208008, 9.46188496094, -0.900763358779, -1.6641221374, -0.511450381679
1.6955351829528809,-0.627280834961, 2.42293208008, 9.46188496094, -0.900763358779, -1.6641221374, -0.511450381679
1.7004971504211426,-0.627280834961, 2.42293208008, 9.46188496094, -0.900763358779, -1.6641221374, -0.511450381679
1.7035880088806152,-0.627280834961, 2.42293208008, 9.46188496094, -0.900763358779, -1.6641221374, -0.511450381679
1.7077441215515137,-0.627280834961, 2.42293208008, 9.46188496094, -0.900763358779, -1.6641221374, -0.511450381679
1.7146050930023193,-0.627280834961, 2.42293208008, 9.46188496094, -0.900763358779, -1.6641221374, -0.511450381679
1.7191011905670166,-0.627280834961, 2.42293208008, 9.46188496094, -0.900763358779, -1.6641221374, -0.511450381679
1.7231171131134033,-0.627280834961, 2.42293208008, 9.46188496094, -0.900763358779, -1.6641221374, -0.511450381679
1.7275559902191162,-0.627280834961, 2.42293208008, 9.46188496094, -0.900763358779, -1.6641221374, -0.511450381679
1.7382290363311768,-0.624886633301, 2.26970317383, 9.28950244141, -0.954198473282, -1.36641221374, -0.381679389313
1.7480731010437012,-0.624886633301, 2.26970317383, 9.28950244141, -0.954198473282, -1.36641221374, -0.381679389313
1.751682996749878,-0.624886633301, 2.26970317383, 9.28950244141, -0.954198473282, -1.36641221374, -0.381679389313
1.754587173461914,-0.624886633301, 2.26970317383, 9.28950244141, -0.954198473282, -1.36641221374, -0.381679389313
1.7574121952056885,-0.624886633301, 2.26970317383, 9.28950244141, -0.954198473282, -1.36641221374, -0.381679389313
1.7594120502471924,-0.624886633301, 2.26970317383, 9.28950244141, -0.954198473282, -1.36641221374, -0.381679389313
1.7632911205291748,-0.624886633301, 2.26970317383, 9.28950244141, -0.954198473282, -1.36641221374, -0.381679389313
1.7676889896392822,-0.624886633301, 2.26970317383, 9.28950244141, -0.954198473282, -1.36641221374, -0.381679389313
1.7758641242980957,-0.624886633301, 2.26970317383, 9.28950244141, -0.954198473282, -1.36641221374, -0.381679389313
1.789811134338379,-0.624886633301, 2.26970317383, 9.28950244141, -0.954198473282, -1.36641221374, -0.381679389313
1.7922511100769043,-0.624886633301, 2.26970317383, 9.28950244141, -0.954198473282, -1.36641221374, -0.381679389313
1.7948501110076904,-0.624886633301, 2.26970317383, 9.28950244141, -0.954198473282, -1.36641221374, -0.381679389313
1.79951810836792,-0.624886633301, 2.26970317383, 9.28950244141, -0.954198473282, -1.36641221374, -0.381679389313
1.8021771907806396,-0.624886633301, 2.26970317383, 9.28950244141, -0.954198473282, -1.36641221374, -0.381679389313
1.805049180984497,-0.624886633301, 2.26970317383, 9.28950244141, -0.954198473282, -1.36641221374, -0.381679389313
1.8079850673675537,-0.624886633301, 2.26970317383, 9.28950244141, -0.954198473282, -1.36641221374, -0.381679389313
1.811554193496704,-0.624886633301, 2.26970317383, 9.28950244141, -0.954198473282, -1.36641221374, -0.381679389313
1.8143370151519775,-0.624886633301, 2.26970317383, 9.28950244141, -0.954198473282, -1.36641221374, -0.381679389313
1.816890001296997,-0.624886633301, 2.26970317383, 9.28950244141, -0.954198473282, -1.36641221374, -0.381679389313
1.8185820579528809,-0.624886633301, 2.26970317383, 9.28950244141, -0.954198473282, -1.36641221374, -0.381679389313
1.8215391635894775,-0.624886633301, 2.26970317383, 9.28950244141, -0.954198473282, -1.36641221374, -0.381679389313
1.8258640766143799,-0.624886633301, 2.26970317383, 9.28950244141, -0.954198473282, -1.36641221374, -0.381679389313
1.8304941654205322,-0.624886633301, 2.26970317383, 9.28950244141, -0.954198473282, -1.36641221374, -0.381679389313
1.8366541862487793,-0.624886633301, 2.26970317383, 9.28950244141, -0.954198473282, -1.36641221374, -0.381679389313
1.8415281772613525,-0.624886633301, 2.26970317383, 9.28950244141, -0.954198473282, -1.36641221374, -0.381679389313
1.8491630554199219,-0.646434448242, 2.28167418213, 9.22246479492, -1.0, -1.6106870229, -0.404580152672
1.851722002029419,-0.646434448242, 2.28167418213, 9.22246479492, -1.0, -1.6106870229, -0.404580152672
1.8541810512542725,-0.646434448242, 2.28167418213, 9.22246479492, -1.0, -1.6106870229, -0.404580152672
1.8584489822387695,-0.646434448242, 2.28167418213, 9.22246479492, -1.0, -1.6106870229, -0.404580152672
1.8792669773101807,-0.646434448242, 2.28167418213, 9.22246479492, -1.0, -1.6106870229, -0.404580152672
1.8844091892242432,-0.646434448242, 2.28167418213, 9.22246479492, -1.0, -1.6106870229, -0.404580152672
1.8918230533599854,-0.646434448242, 2.28167418213, 9.22246479492, -1.0, -1.6106870229, -0.404580152672
1.9044160842895508,-0.646434448242, 2.28167418213, 9.22246479492, -1.0, -1.6106870229, -0.404580152672
1.9099040031433105,-0.646434448242, 2.28167418213, 9.22246479492, -1.0, -1.6106870229, -0.404580152672
1.9131510257720947,-0.646434448242, 2.28167418213, 9.22246479492, -1.0, -1.6106870229, -0.404580152672
1.9159090518951416,-0.646434448242, 2.28167418213, 9.22246479492, -1.0, -1.6106870229, -0.404580152672
1.9205729961395264,-0.646434448242, 2.28167418213, 9.22246479492, -1.0, -1.6106870229, -0.404580152672
1.9249529838562012,-0.646434448242, 2.28167418213, 9.22246479492, -1.0, -1.6106870229, -0.404580152672
1.929807186126709,-0.646434448242, 2.28167418213, 9.22246479492, -1.0, -1.6106870229, -0.404580152672
1.932591199874878,-0.646434448242, 2.28167418213, 9.22246479492, -1.0, -1.6106870229, -0.404580152672
1.935148000717163,-0.646434448242, 2.28167418213, 9.22246479492, -1.0, -1.6106870229, -0.404580152672
1.9409091472625732,-0.646434448242, 2.28167418213, 9.22246479492, -1.0, -1.6106870229, -0.404580152672
1.9532461166381836,-0.586579406738, 2.43011468506, 9.31583865967, -1.06106870229, -1.52671755725, -0.595419847328
1.9629981517791748,-0.586579406738, 2.43011468506, 9.31583865967, -1.06106870229, -1.52671755725, -0.595419847328
1.9650771617889404,-0.586579406738, 2.43011468506, 9.31583865967, -1.06106870229, -1.52671755725, -0.595419847328
1.9671611785888672,-0.586579406738, 2.43011468506, 9.31583865967, -1.06106870229, -1.52671755725, -0.595419847328
1.968630075454712,-0.586579406738, 2.43011468506, 9.31583865967, -1.06106870229, -1.52671755725, -0.595419847328
1.9728670120239258,-0.586579406738, 2.43011468506, 9.31583865967, -1.06106870229, -1.52671755725, -0.595419847328
1.9752800464630127,-0.586579406738, 2.43011468506, 9.31583865967, -1.06106870229, -1.52671755725, -0.595419847328
1.9769830703735352,-0.586579406738, 2.43011468506, 9.31583865967, -1.06106870229, -1.52671755725, -0.595419847328
1.9784331321716309,-0.586579406738, 2.43011468506, 9.31583865967, -1.06106870229, -1.52671755725, -0.595419847328
1.981260061264038,-0.586579406738, 2.43011468506, 9.31583865967, -1.06106870229, -1.52671755725, -0.595419847328
1.982748031616211,-0.586579406738, 2.43011468506, 9.31583865967, -1.06106870229, -1.52671755725, -0.595419847328
1.9840950965881348,-0.586579406738, 2.43011468506, 9.31583865967, -1.06106870229, -1.52671755725, -0.595419847328
1.9867630004882812,-0.586579406738, 2.43011468506, 9.31583865967, -1.06106870229, -1.52671755725, -0.595419847328
1.9883780479431152,-0.586579406738, 2.43011468506, 9.31583865967, -1.06106870229, -1.52671755725, -0.595419847328
1.9897840023040771,-0.586579406738, 2.43011468506, 9.31583865967, -1.06106870229, -1.52671755725, -0.595419847328
1.9912362098693848,-0.586579406738, 2.43011468506, 9.31583865967, -1.06106870229, -1.52671755725, -0.595419847328
1.9927291870117188,-0.586579406738, 2.43011468506, 9.31583865967, -1.06106870229, -1.52671755725, -0.595419847328
1.9941000938415527,-0.586579406738, 2.43011468506, 9.31583865967, -1.06106870229, -1.52671755725, -0.595419847328
1.9956910610198975,-0.586579406738, 2.43011468506, 9.31583865967, -1.06106870229, -1.52671755725, -0.595419847328
2.0008699893951416,-0.586579406738, 2.43011468506, 9.31583865967, -1.06106870229, -1.52671755725, -0.595419847328
2.003648042678833,-0.586579406738, 2.43011468506, 9.31583865967, -1.06106870229, -1.52671755725, -0.595419847328
2.008836030960083,-0.586579406738, 2.43011468506, 9.31583865967, -1.06106870229, -1.52671755725, -0.595419847328
2.0117430686950684,-0.586579406738, 2.43011468506, 9.31583865967, -1.06106870229, -1.52671755725, -0.595419847328
2.0184030532836914,-0.586579406738, 2.43011468506, 9.31583865967, -1.06106870229, -1.52671755725, -0.595419847328
2.02174711227417,-0.586579406738, 2.43011468506, 9.31583865967, -1.06106870229, -1.52671755725, -0.595419847328
2.0284011363983154,-0.586579406738, 2.43011468506, 9.31583865967, -1.06106870229, -1.52671755725, -0.595419847328
2.031208038330078,-0.586579406738, 2.43011468506, 9.31583865967, -1.06106870229, -1.52671755725, -0.595419847328
2.0437121391296387,-0.730231506348, 2.30322199707, 9.30386765137, -0.740458015267, -1.6641221374, -0.564885496183
2.048983097076416,-0.730231506348, 2.30322199707, 9.30386765137, -0.740458015267, -1.6641221374, -0.564885496183
2.0594680309295654,-0.730231506348, 2.30322199707, 9.30386765137, -0.740458015267, -1.6641221374, -0.564885496183
2.063645124435425,-0.730231506348, 2.30322199707, 9.30386765137, -0.740458015267, -1.6641221374, -0.564885496183
2.066540002822876,-0.730231506348, 2.30322199707, 9.30386765137, -0.740458015267, -1.6641221374, -0.564885496183
2.0696489810943604,-0.730231506348, 2.30322199707, 9.30386765137, -0.740458015267, -1.6641221374, -0.564885496183
2.0751571655273438,-0.730231506348, 2.30322199707, 9.30386765137, -0.740458015267, -1.6641221374, -0.564885496183
2.0782880783081055,-0.730231506348, 2.30322199707, 9.30386765137, -0.740458015267, -1.6641221374, -0.564885496183
2.0830910205841064,-0.730231506348, 2.30322199707, 9.30386765137, -0.740458015267, -1.6641221374, -0.564885496183
2.0880391597747803,-0.730231506348, 2.30322199707, 9.30386765137, -0.740458015267, -1.6641221374, -0.564885496183
2.09098219871521,-0.730231506348, 2.30322199707, 9.30386765137, -0.740458015267, -1.6641221374, -0.564885496183
2.0937490463256836,-0.730231506348, 2.30322199707, 9.30386765137, -0.740458015267, -1.6641221374, -0.564885496183
2.0956830978393555,-0.730231506348, 2.30322199707, 9.30386765137, -0.740458015267, -1.6641221374, -0.564885496183
2.1016831398010254,-0.730231506348, 2.30322199707, 9.30386765137, -0.740458015267, -1.6641221374, -0.564885496183
2.107055187225342,-0.730231506348, 2.30322199707, 9.30386765137, -0.740458015267, -1.6641221374, -0.564885496183
2.113197088241577,-0.730231506348, 2.30322199707, 9.30386765137, -0.740458015267, -1.6641221374, -0.564885496183
2.1216251850128174,-0.730231506348, 2.30322199707, 9.30386765137, -0.740458015267, -1.6641221374, -0.564885496183
2.124932050704956,-0.730231506348, 2.30322199707, 9.30386765137, -0.740458015267, -1.6641221374, -0.564885496183
2.1308140754699707,-0.730231506348, 2.30322199707, 9.30386765137, -0.740458015267, -1.6641221374, -0.564885496183
2.1343460083007812,-0.730231506348, 2.30322199707, 9.30386765137, -0.740458015267, -1.6641221374, -0.564885496183
2.1453630924224854,-0.603338818359, 2.29603939209, 9.17697496338, -1.07633587786, -1.61832061069, -0.343511450382
2.148527145385742,-0.603338818359, 2.29603939209, 9.17697496338, -1.07633587786, -1.61832061069, -0.343511450382
2.1517341136932373,-0.603338818359, 2.29603939209, 9.17697496338, -1.07633587786, -1.61832061069, -0.343511450382
2.155003070831299,-0.603338818359, 2.29603939209, 9.17697496338, -1.07633587786, -1.61832061069, -0.343511450382
2.1579370498657227,-0.603338818359, 2.29603939209, 9.17697496338, -1.07633587786, -1.61832061069, -0.343511450382
2.1600430011749268,-0.603338818359, 2.29603939209, 9.17697496338, -1.07633587786, -1.61832061069, -0.343511450382
2.163748025894165,-0.603338818359, 2.29603939209, 9.17697496338, -1.07633587786, -1.61832061069, -0.343511450382
2.167652130126953,-0.603338818359, 2.29603939209, 9.17697496338, -1.07633587786, -1.61832061069, -0.343511450382
2.17142915725708,-0.603338818359, 2.29603939209, 9.17697496338, -1.07633587786, -1.61832061069, -0.343511450382
2.1839091777801514,-0.603338818359, 2.29603939209, 9.17697496338, -1.07633587786, -1.61832061069, -0.343511450382
2.1878931522369385,-0.603338818359, 2.29603939209, 9.17697496338, -1.07633587786, -1.61832061069, -0.343511450382
2.193286180496216,-0.603338818359, 2.29603939209, 9.17697496338, -1.07633587786, -1.61832061069, -0.343511450382
2.196053981781006,-0.603338818359, 2.29603939209, 9.17697496338, -1.07633587786, -1.61832061069, -0.343511450382
2.202355146408081,-0.603338818359, 2.29603939209, 9.17697496338, -1.07633587786, -1.61832061069, -0.343511450382
2.2056870460510254,-0.603338818359, 2.29603939209, 9.17697496338, -1.07633587786, -1.61832061069, -0.343511450382
2.21181321144104,-0.603338818359, 2.29603939209, 9.17697496338, -1.07633587786, -1.61832061069, -0.343511450382
2.2145280838012695,-0.603338818359, 2.29603939209, 9.17697496338, -1.07633587786, -1.61832061069, -0.343511450382
2.218111038208008,-0.603338818359, 2.29603939209, 9.17697496338, -1.07633587786, -1.61832061069, -0.343511450382
2.222670078277588,-0.603338818359, 2.29603939209, 9.17697496338, -1.07633587786, -1.61832061069, -0.343511450382
2.225250005722046,-0.603338818359, 2.29603939209, 9.17697496338, -1.07633587786, -1.61832061069, -0.343511450382
2.23020601272583,-0.603338818359, 2.29603939209, 9.17697496338, -1.07633587786, -1.61832061069, -0.343511450382
2.235856056213379,-0.603338818359, 2.29603939209, 9.17697496338, -1.07633587786, -1.61832061069, -0.343511450382
2.2516050338745117,-0.644040246582, 2.22181914063, 9.34217487793, -0.923664122137, -1.57251908397, -0.725190839695
2.254634141921997,-0.644040246582, 2.22181914063, 9.34217487793, -0.923664122137, -1.57251908397, -0.725190839695
2.2578330039978027,-0.644040246582, 2.22181914063, 9.34217487793, -0.923664122137, -1.57251908397, -0.725190839695
2.2610011100769043,-0.644040246582, 2.22181914063, 9.34217487793, -0.923664122137, -1.57251908397, -0.725190839695
2.264111042022705,-0.644040246582, 2.22181914063, 9.34217487793, -0.923664122137, -1.57251908397, -0.725190839695
2.267446994781494,-0.644040246582, 2.22181914063, 9.34217487793, -0.923664122137, -1.57251908397, -0.725190839695
2.2702441215515137,-0.644040246582, 2.22181914063, 9.34217487793, -0.923664122137, -1.57251908397, -0.725190839695
2.2764201164245605,-0.644040246582, 2.22181914063, 9.34217487793, -0.923664122137, -1.57251908397, -0.725190839695
2.2823190689086914,-0.644040246582, 2.22181914063, 9.34217487793, -0.923664122137, -1.57251908397, -0.725190839695
2.2841131687164307,-0.644040246582, 2.22181914063, 9.34217487793, -0.923664122137, -1.57251908397, -0.725190839695
2.289558172225952,-0.644040246582, 2.22181914063, 9.34217487793, -0.923664122137, -1.57251908397, -0.725190839695
2.2939300537109375,-0.644040246582, 2.22181914063, 9.34217487793, -0.923664122137, -1.57251908397, -0.725190839695
2.3037869930267334,-0.644040246582, 2.22181914063, 9.34217487793, -0.923664122137, -1.57251908397, -0.725190839695
2.311305046081543,-0.644040246582, 2.22181914063, 9.34217487793, -0.923664122137, -1.57251908397, -0.725190839695
2.314096212387085,-0.644040246582, 2.22181914063, 9.34217487793, -0.923664122137, -1.57251908397, -0.725190839695
2.317000150680542,-0.644040246582, 2.22181914063, 9.34217487793, -0.923664122137, -1.57251908397, -0.725190839695
2.323199987411499,-0.644040246582, 2.22181914063, 9.34217487793, -0.923664122137, -1.57251908397, -0.725190839695
2.327529191970825,-0.644040246582, 2.22181914063, 9.34217487793, -0.923664122137, -1.57251908397, -0.725190839695
2.3300721645355225,-0.644040246582, 2.22181914063, 9.34217487793, -0.923664122137, -1.57251908397, -0.725190839695
2.3327860832214355,-0.644040246582, 2.22181914063, 9.34217487793, -0.923664122137, -1.57251908397, -0.725190839695
2.335658073425293,-0.644040246582, 2.22181914063, 9.34217487793, -0.923664122137, -1.57251908397, -0.725190839695
2.3400790691375732,-0.644040246582, 2.22181914063, 9.34217487793, -0.923664122137, -1.57251908397, -0.725190839695
2.3468101024627686,-0.660799658203, 2.25533796387, 9.23443580322, -0.778625954198, -1.71755725191, -0.503816793893
2.355962038040161,-0.660799658203, 2.25533796387, 9.23443580322, -0.778625954198, -1.71755725191, -0.503816793893
2.360300064086914,-0.660799658203, 2.25533796387, 9.23443580322, -0.778625954198, -1.71755725191, -0.503816793893
2.369279146194458,-0.660799658203, 2.25533796387, 9.23443580322, -0.778625954198, -1.71755725191, -0.503816793893
2.377380132675171,-0.660799658203, 2.25533796387, 9.23443580322, -0.778625954198, -1.71755725191, -0.503816793893
2.3801651000976562,-0.660799658203, 2.25533796387, 9.23443580322, -0.778625954198, -1.71755725191, -0.503816793893
2.383117198944092,-0.660799658203, 2.25533796387, 9.23443580322, -0.778625954198, -1.71755725191, -0.503816793893
2.385867118835449,-0.660799658203, 2.25533796387, 9.23443580322, -0.778625954198, -1.71755725191, -0.503816793893
2.3894309997558594,-0.660799658203, 2.25533796387, 9.23443580322, -0.778625954198, -1.71755725191, -0.503816793893
2.3966641426086426,-0.660799658203, 2.25533796387, 9.23443580322, -0.778625954198, -1.71755725191, -0.503816793893
2.402531147003174,-0.660799658203, 2.25533796387, 9.23443580322, -0.778625954198, -1.71755725191, -0.503816793893
2.4079291820526123,-0.660799658203, 2.25533796387, 9.23443580322, -0.778625954198, -1.71755725191, -0.503816793893
2.4188661575317383,-0.660799658203, 2.25533796387, 9.23443580322, -0.778625954198, -1.71755725191, -0.503816793893
2.4245731830596924,-0.660799658203, 2.25533796387, 9.23443580322, -0.778625954198, -1.71755725191, -0.503816793893
2.4327950477600098,-0.660799658203, 2.25533796387, 9.23443580322, -0.778625954198, -1.71755725191, -0.503816793893
2.4402401447296143,-0.723048901367, 2.29364519043, 9.22485899658, -1.02290076336, -1.58778625954, -0.610687022901
2.4447991847991943,-0.723048901367, 2.29364519043, 9.22485899658, -1.02290076336, -1.58778625954, -0.610687022901
2.4483931064605713,-0.723048901367, 2.29364519043, 9.22485899658, -1.02290076336, -1.58778625954, -0.610687022901
2.45209002494812,-0.723048901367, 2.29364519043, 9.22485899658, -1.02290076336, -1.58778625954, -0.610687022901
2.4554061889648438,-0.723048901367, 2.29364519043, 9.22485899658, -1.02290076336, -1.58778625954, -0.610687022901
2.468662977218628,-0.723048901367, 2.29364519043, 9.22485899658, -1.02290076336, -1.58778625954, -0.610687022901
2.4705400466918945,-0.723048901367, 2.29364519043, 9.22485899658, -1.02290076336, -1.58778625954, -0.610687022901
2.4739701747894287,-0.723048901367, 2.29364519043, 9.22485899658, -1.02290076336, -1.58778625954, -0.610687022901
2.495974063873291,-0.723048901367, 2.29364519043, 9.22485899658, -1.02290076336, -1.58778625954, -0.610687022901
2.4999020099639893,-0.723048901367, 2.29364519043, 9.22485899658, -1.02290076336, -1.58778625954, -0.610687022901
2.5036780834198,-0.723048901367, 2.29364519043, 9.22485899658, -1.02290076336, -1.58778625954, -0.610687022901
2.5196211338043213,-0.723048901367, 2.29364519043, 9.22485899658, -1.02290076336, -1.58778625954, -0.610687022901
2.5236330032348633,-0.723048901367, 2.29364519043, 9.22485899658, -1.02290076336, -1.58778625954, -0.610687022901
2.5283679962158203,-0.723048901367, 2.29364519043, 9.22485899658, -1.02290076336, -1.58778625954, -0.610687022901
2.5303142070770264,-0.723048901367, 2.29364519043, 9.22485899658, -1.02290076336, -1.58778625954, -0.610687022901
2.541337013244629,-0.682347473145, 2.27449157715, 9.17936916504, -0.87786259542, -1.56488549618, -0.450381679389
2.552025079727173,-0.682347473145, 2.27449157715, 9.17936916504, -0.87786259542, -1.56488549618, -0.450381679389
2.566481113433838,-0.682347473145, 2.27449157715, 9.17936916504, -0.87786259542, -1.56488549618, -0.450381679389
2.5751161575317383,-0.682347473145, 2.27449157715, 9.17936916504, -0.87786259542, -1.56488549618, -0.450381679389
2.577822208404541,-0.682347473145, 2.27449157715, 9.17936916504, -0.87786259542, -1.56488549618, -0.450381679389
2.5819849967956543,-0.682347473145, 2.27449157715, 9.17936916504, -0.87786259542, -1.56488549618, -0.450381679389
2.5843892097473145,-0.682347473145, 2.27449157715, 9.17936916504, -0.87786259542, -1.56488549618, -0.450381679389
2.588081121444702,-0.682347473145, 2.27449157715, 9.17936916504, -0.87786259542, -1.56488549618, -0.450381679389
2.589750051498413,-0.682347473145, 2.27449157715, 9.17936916504, -0.87786259542, -1.56488549618, -0.450381679389
2.593196153640747,-0.682347473145, 2.27449157715, 9.17936916504, -0.87786259542, -1.56488549618, -0.450381679389
2.5968050956726074,-0.682347473145, 2.27449157715, 9.17936916504, -0.87786259542, -1.56488549618, -0.450381679389
2.6005351543426514,-0.682347473145, 2.27449157715, 9.17936916504, -0.87786259542, -1.56488549618, -0.450381679389
2.6058051586151123,-0.682347473145, 2.27449157715, 9.17936916504, -0.87786259542, -1.56488549618, -0.450381679389
2.6109201908111572,-0.682347473145, 2.27449157715, 9.17936916504, -0.87786259542, -1.56488549618, -0.450381679389
2.6126351356506348,-0.682347473145, 2.27449157715, 9.17936916504, -0.87786259542, -1.56488549618, -0.450381679389
2.614784002304077,-0.682347473145, 2.27449157715, 9.17936916504, -0.87786259542, -1.56488549618, -0.450381679389
2.6167681217193604,-0.682347473145, 2.27449157715, 9.17936916504, -0.87786259542, -1.56488549618, -0.450381679389
2.618504047393799,-0.682347473145, 2.27449157715, 9.17936916504, -0.87786259542, -1.56488549618, -0.450381679389
2.620415210723877,-0.682347473145, 2.27449157715, 9.17936916504, -0.87786259542, -1.56488549618, -0.450381679389
2.6221401691436768,-0.682347473145, 2.27449157715, 9.17936916504, -0.87786259542, -1.56488549618, -0.450381679389
2.6241331100463867,-0.682347473145, 2.27449157715, 9.17936916504, -0.87786259542, -1.56488549618, -0.450381679389
2.626272201538086,-0.682347473145, 2.27449157715, 9.17936916504, -0.87786259542, -1.56488549618, -0.450381679389
2.628251075744629,-0.682347473145, 2.27449157715, 9.17936916504, -0.87786259542, -1.56488549618, -0.450381679389
2.6300740242004395,-0.682347473145, 2.27449157715, 9.17936916504, -0.87786259542, -1.56488549618, -0.450381679389
2.6403450965881348,-0.746990917969, 2.24576115723, 9.22246479492, -0.81679389313, -1.48091603053, -0.419847328244
2.648844003677368,-0.746990917969, 2.24576115723, 9.22246479492, -0.81679389313, -1.48091603053, -0.419847328244
2.6520230770111084,-0.746990917969, 2.24576115723, 9.22246479492, -0.81679389313, -1.48091603053, -0.419847328244
2.6555709838867188,-0.746990917969, 2.24576115723, 9.22246479492, -0.81679389313, -1.48091603053, -0.419847328244
2.658997058868408,-0.746990917969, 2.24576115723, 9.22246479492, -0.81679389313, -1.48091603053, -0.419847328244
2.6644229888916016,-0.746990917969, 2.24576115723, 9.22246479492, -0.81679389313, -1.48091603053, -0.419847328244
2.674422025680542,-0.746990917969, 2.24576115723, 9.22246479492, -0.81679389313, -1.48091603053, -0.419847328244
2.6774110794067383,-0.746990917969, 2.24576115723, 9.22246479492, -0.81679389313, -1.48091603053, -0.419847328244
2.682342052459717,-0.746990917969, 2.24576115723, 9.22246479492, -0.81679389313, -1.48091603053, -0.419847328244
2.6899070739746094,-0.746990917969, 2.24576115723, 9.22246479492, -0.81679389313, -1.48091603053, -0.419847328244
2.6970481872558594,-0.746990917969, 2.24576115723, 9.22246479492, -0.81679389313, -1.48091603053, -0.419847328244
2.7048730850219727,-0.746990917969, 2.24576115723, 9.22246479492, -0.81679389313, -1.48091603053, -0.419847328244
2.709388017654419,-0.746990917969, 2.24576115723, 9.22246479492, -0.81679389313, -1.48091603053, -0.419847328244
2.712545156478882,-0.746990917969, 2.24576115723, 9.22246479492, -0.81679389313, -1.48091603053, -0.419847328244
2.716369152069092,-0.746990917969, 2.24576115723, 9.22246479492, -0.81679389313, -1.48091603053, -0.419847328244
2.722342014312744,-0.746990917969, 2.24576115723, 9.22246479492, -0.81679389313, -1.48091603053, -0.419847328244
2.725831985473633,-0.746990917969, 2.24576115723, 9.22246479492, -0.81679389313, -1.48091603053, -0.419847328244
2.729727029800415,-0.746990917969, 2.24576115723, 9.22246479492, -0.81679389313, -1.48091603053, -0.419847328244
2.732697010040283,-0.746990917969, 2.24576115723, 9.22246479492, -0.81679389313, -1.48091603053, -0.419847328244
2.735863208770752,-0.746990917969, 2.24576115723, 9.22246479492, -0.81679389313, -1.48091603053, -0.419847328244
2.738399028778076,-0.746990917969, 2.24576115723, 9.22246479492, -0.81679389313, -1.48091603053, -0.419847328244
2.7406911849975586,-0.746990917969, 2.24576115723, 9.22246479492, -0.81679389313, -1.48091603053, -0.419847328244
2.744502067565918,-0.746990917969, 2.24576115723, 9.22246479492, -0.81679389313, -1.48091603053, -0.419847328244
2.776848077774048,-0.730231506348, 2.28885678711, 9.24401260986, -0.885496183206, -1.58015267176, -0.381679389313
2.779952049255371,-0.730231506348, 2.28885678711, 9.24401260986, -0.885496183206, -1.58015267176, -0.381679389313
2.7830162048339844,-0.730231506348, 2.28885678711, 9.24401260986, -0.885496183206, -1.58015267176, -0.381679389313
2.786013126373291,-0.730231506348, 2.28885678711, 9.24401260986, -0.885496183206, -1.58015267176, -0.381679389313
2.7887961864471436,-0.730231506348, 2.28885678711, 9.24401260986, -0.885496183206, -1.58015267176, -0.381679389313
2.791802167892456,-0.730231506348, 2.28885678711, 9.24401260986, -0.885496183206, -1.58015267176, -0.381679389313
2.7947051525115967,-0.730231506348, 2.28885678711, 9.24401260986, -0.885496183206, -1.58015267176, -0.381679389313
2.79653000831604,-0.730231506348, 2.28885678711, 9.24401260986, -0.885496183206, -1.58015267176, -0.381679389313
2.799039125442505,-0.730231506348, 2.28885678711, 9.24401260986, -0.885496183206, -1.58015267176, -0.381679389313
2.8034110069274902,-0.730231506348, 2.28885678711, 9.24401260986, -0.885496183206, -1.58015267176, -0.381679389313
2.808277130126953,-0.730231506348, 2.28885678711, 9.24401260986, -0.885496183206, -1.58015267176, -0.381679389313
2.814481019973755,-0.730231506348, 2.28885678711, 9.24401260986, -0.885496183206, -1.58015267176, -0.381679389313
2.820078134536743,-0.730231506348, 2.28885678711, 9.24401260986, -0.885496183206, -1.58015267176, -0.381679389313
2.8232171535491943,-0.730231506348, 2.28885678711, 9.24401260986, -0.885496183206, -1.58015267176, -0.381679389313
2.8264050483703613,-0.730231506348, 2.28885678711, 9.24401260986, -0.885496183206, -1.58015267176, -0.381679389313
2.829320192337036,-0.730231506348, 2.28885678711, 9.24401260986, -0.885496183206, -1.58015267176, -0.381679389313
2.83258318901062,-0.730231506348, 2.28885678711, 9.24401260986, -0.885496183206, -1.58015267176, -0.381679389313
2.83907413482666,-0.644040246582, 2.25773216553, 9.23922420654, -0.832061068702, -1.40458015267, -0.465648854962
2.845553159713745,-0.644040246582, 2.25773216553, 9.23922420654, -0.832061068702, -1.40458015267, -0.465648854962
2.8489990234375,-0.644040246582, 2.25773216553, 9.23922420654, -0.832061068702, -1.40458015267, -0.465648854962
2.852112054824829,-0.644040246582, 2.25773216553, 9.23922420654, -0.832061068702, -1.40458015267, -0.465648854962
2.8550281524658203,-0.644040246582, 2.25773216553, 9.23922420654, -0.832061068702, -1.40458015267, -0.465648854962
2.857532024383545,-0.644040246582, 2.25773216553, 9.23922420654, -0.832061068702, -1.40458015267, -0.465648854962
2.859920024871826,-0.644040246582, 2.25773216553, 9.23922420654, -0.832061068702, -1.40458015267, -0.465648854962
2.8639941215515137,-0.644040246582, 2.25773216553, 9.23922420654, -0.832061068702, -1.40458015267, -0.465648854962
2.8683621883392334,-0.644040246582, 2.25773216553, 9.23922420654, -0.832061068702, -1.40458015267, -0.465648854962
2.879242181777954,-0.644040246582, 2.25773216553, 9.23922420654, -0.832061068702, -1.40458015267, -0.465648854962
2.8826851844787598,-0.644040246582, 2.25773216553, 9.23922420654, -0.832061068702, -1.40458015267, -0.465648854962
2.8882081508636475,-0.644040246582, 2.25773216553, 9.23922420654, -0.832061068702, -1.40458015267, -0.465648854962
2.8921051025390625,-0.644040246582, 2.25773216553, 9.23922420654, -0.832061068702, -1.40458015267, -0.465648854962
2.8951730728149414,-0.644040246582, 2.25773216553, 9.23922420654, -0.832061068702, -1.40458015267, -0.465648854962
2.898189067840576,-0.644040246582, 2.25773216553, 9.23922420654, -0.832061068702, -1.40458015267, -0.465648854962
2.901029109954834,-0.644040246582, 2.25773216553, 9.23922420654, -0.832061068702, -1.40458015267, -0.465648854962
2.9046502113342285,-0.644040246582, 2.25773216553, 9.23922420654, -0.832061068702, -1.40458015267, -0.465648854962
2.9080581665039062,-0.644040246582, 2.25773216553, 9.23922420654, -0.832061068702, -1.40458015267, -0.465648854962
2.9106781482696533,-0.644040246582, 2.25773216553, 9.23922420654, -0.832061068702, -1.40458015267, -0.465648854962
2.914234161376953,-0.644040246582, 2.25773216553, 9.23922420654, -0.832061068702, -1.40458015267, -0.465648854962
2.9180381298065186,-0.644040246582, 2.25773216553, 9.23922420654, -0.832061068702, -1.40458015267, -0.465648854962
2.920044183731079,-0.644040246582, 2.25773216553, 9.23922420654, -0.832061068702, -1.40458015267, -0.465648854962
2.9220449924468994,-0.644040246582, 2.25773216553, 9.23922420654, -0.832061068702, -1.40458015267, -0.465648854962
2.9260001182556152,-0.644040246582, 2.25773216553, 9.23922420654, -0.832061068702, -1.40458015267, -0.465648854962
2.9301459789276123,-0.644040246582, 2.25773216553, 9.23922420654, -0.832061068702, -1.40458015267, -0.465648854962
2.9389841556549072,-0.61770402832, 2.26730897217, 9.08360109863, -0.786259541985, -1.51145038168, -0.458015267176
2.9451441764831543,-0.61770402832, 2.26730897217, 9.08360109863, -0.786259541985, -1.51145038168, -0.458015267176
2.9531240463256836,-0.61770402832, 2.26730897217, 9.08360109863, -0.786259541985, -1.51145038168, -0.458015267176
2.9561660289764404,-0.61770402832, 2.26730897217, 9.08360109863, -0.786259541985, -1.51145038168, -0.458015267176
2.959787130355835,-0.61770402832, 2.26730897217, 9.08360109863, -0.786259541985, -1.51145038168, -0.458015267176
2.9628331661224365,-0.61770402832, 2.26730897217, 9.08360109863, -0.786259541985, -1.51145038168, -0.458015267176
2.966076135635376,-0.61770402832, 2.26730897217, 9.08360109863, -0.786259541985, -1.51145038168, -0.458015267176
2.968536138534546,-0.61770402832, 2.26730897217, 9.08360109863, -0.786259541985, -1.51145038168, -0.458015267176
2.9714441299438477,-0.61770402832, 2.26730897217, 9.08360109863, -0.786259541985, -1.51145038168, -0.458015267176
2.9744250774383545,-0.61770402832, 2.26730897217, 9.08360109863, -0.786259541985, -1.51145038168, -0.458015267176
2.9774601459503174,-0.61770402832, 2.26730897217, 9.08360109863, -0.786259541985, -1.51145038168, -0.458015267176
2.9801011085510254,-0.61770402832, 2.26730897217, 9.08360109863, -0.786259541985, -1.51145038168, -0.458015267176
2.989819049835205,-0.61770402832, 2.26730897217, 9.08360109863, -0.786259541985, -1.51145038168, -0.458015267176
2.994054079055786,-0.61770402832, 2.26730897217, 9.08360109863, -0.786259541985, -1.51145038168, -0.458015267176
3.0034031867980957,-0.61770402832, 2.26730897217, 9.08360109863, -0.786259541985, -1.51145038168, -0.458015267176
3.0067031383514404,-0.61770402832, 2.26730897217, 9.08360109863, -0.786259541985, -1.51145038168, -0.458015267176
3.0096681118011475,-0.61770402832, 2.26730897217, 9.08360109863, -0.786259541985, -1.51145038168, -0.458015267176
3.0128681659698486,-0.61770402832, 2.26730897217, 9.08360109863, -0.786259541985, -1.51145038168, -0.458015267176
3.015890121459961,-0.61770402832, 2.26730897217, 9.08360109863, -0.786259541985, -1.51145038168, -0.458015267176
3.019092082977295,-0.61770402832, 2.26730897217, 9.08360109863, -0.786259541985, -1.51145038168, -0.458015267176
3.0218820571899414,-0.61770402832, 2.26730897217, 9.08360109863, -0.786259541985, -1.51145038168, -0.458015267176
3.07944917678833,-0.639251843262, 2.26491477051, 9.1578213501, -1.01526717557, -1.46564885496, -0.381679389313
3.0827300548553467,-0.639251843262, 2.26491477051, 9.1578213501, -1.01526717557, -1.46564885496, -0.381679389313
3.0855510234832764,-0.639251843262, 2.26491477051, 9.1578213501, -1.01526717557, -1.46564885496, -0.381679389313
3.088893175125122,-0.639251843262, 2.26491477051, 9.1578213501, -1.01526717557, -1.46564885496, -0.381679389313
3.0960631370544434,-0.639251843262, 2.26491477051, 9.1578213501, -1.01526717557, -1.46564885496, -0.381679389313
3.098004102706909,-0.639251843262, 2.26491477051, 9.1578213501, -1.01526717557, -1.46564885496, -0.381679389313
3.099961042404175,-0.639251843262, 2.26491477051, 9.1578213501, -1.01526717557, -1.46564885496, -0.381679389313
3.101637125015259,-0.639251843262, 2.26491477051, 9.1578213501, -1.01526717557, -1.46564885496, -0.381679389313
3.103407144546509,-0.639251843262, 2.26491477051, 9.1578213501, -1.01526717557, -1.46564885496, -0.381679389313
3.105926990509033,-0.639251843262, 2.26491477051, 9.1578213501, -1.01526717557, -1.46564885496, -0.381679389313
3.108673095703125,-0.639251843262, 2.26491477051, 9.1578213501, -1.01526717557, -1.46564885496, -0.381679389313
3.1111299991607666,-0.639251843262, 2.26491477051, 9.1578213501, -1.01526717557, -1.46564885496, -0.381679389313
3.1132001876831055,-0.639251843262, 2.26491477051, 9.1578213501, -1.01526717557, -1.46564885496, -0.381679389313
3.1148760318756104,-0.639251843262, 2.26491477051, 9.1578213501, -1.01526717557, -1.46564885496, -0.381679389313
3.1169052124023438,-0.639251843262, 2.26491477051, 9.1578213501, -1.01526717557, -1.46564885496, -0.381679389313
3.1230640411376953,-0.639251843262, 2.26491477051, 9.1578213501, -1.01526717557, -1.46564885496, -0.381679389313
3.12874698638916,-0.639251843262, 2.26491477051, 9.1578213501, -1.01526717557, -1.46564885496, -0.381679389313
3.147292137145996,-0.639251843262, 2.26491477051, 9.1578213501, -1.01526717557, -1.46564885496, -0.381679389313
3.164666175842285,-0.713472094727, 2.25773216553, 9.24640681152, -0.893129770992, -1.70229007634, -0.412213740458
3.1759181022644043,-0.713472094727, 2.25773216553, 9.24640681152, -0.893129770992, -1.70229007634, -0.412213740458
3.178050994873047,-0.713472094727, 2.25773216553, 9.24640681152, -0.893129770992, -1.70229007634, -0.412213740458
3.1831161975860596,-0.713472094727, 2.25773216553, 9.24640681152, -0.893129770992, -1.70229007634, -0.412213740458
3.1947011947631836,-0.713472094727, 2.25773216553, 9.24640681152, -0.893129770992, -1.70229007634, -0.412213740458
3.2022080421447754,-0.713472094727, 2.25773216553, 9.24640681152, -0.893129770992, -1.70229007634, -0.412213740458
3.208156108856201,-0.713472094727, 2.25773216553, 9.24640681152, -0.893129770992, -1.70229007634, -0.412213740458
3.211395025253296,-0.713472094727, 2.25773216553, 9.24640681152, -0.893129770992, -1.70229007634, -0.412213740458
3.2154040336608887,-0.713472094727, 2.25773216553, 9.24640681152, -0.893129770992, -1.70229007634, -0.412213740458
3.235689163208008,-0.713472094727, 2.25773216553, 9.24640681152, -0.893129770992, -1.70229007634, -0.412213740458
3.238943099975586,-0.713472094727, 2.25773216553, 9.24640681152, -0.893129770992, -1.70229007634, -0.412213740458
3.2415339946746826,-0.713472094727, 2.25773216553, 9.24640681152, -0.893129770992, -1.70229007634, -0.412213740458
3.249627113342285,-0.526724365234, 2.14999309082, 9.26795462646, -1.0534351145, -1.59541984733, -0.534351145038
3.2609291076660156,-0.526724365234, 2.14999309082, 9.26795462646, -1.0534351145, -1.59541984733, -0.534351145038
3.266134023666382,-0.526724365234, 2.14999309082, 9.26795462646, -1.0534351145, -1.59541984733, -0.534351145038
3.268860101699829,-0.526724365234, 2.14999309082, 9.26795462646, -1.0534351145, -1.59541984733, -0.534351145038
3.2714931964874268,-0.526724365234, 2.14999309082, 9.26795462646, -1.0534351145, -1.59541984733, -0.534351145038
3.2746059894561768,-0.526724365234, 2.14999309082, 9.26795462646, -1.0534351145, -1.59541984733, -0.534351145038
3.2770490646362305,-0.526724365234, 2.14999309082, 9.26795462646, -1.0534351145, -1.59541984733, -0.534351145038
3.2829601764678955,-0.526724365234, 2.14999309082, 9.26795462646, -1.0534351145, -1.59541984733, -0.534351145038
3.285158157348633,-0.526724365234, 2.14999309082, 9.26795462646, -1.0534351145, -1.59541984733, -0.534351145038
3.2874810695648193,-0.526724365234, 2.14999309082, 9.26795462646, -1.0534351145, -1.59541984733, -0.534351145038
3.2895030975341797,-0.526724365234, 2.14999309082, 9.26795462646, -1.0534351145, -1.59541984733, -0.534351145038
3.2917330265045166,-0.526724365234, 2.14999309082, 9.26795462646, -1.0534351145, -1.59541984733, -0.534351145038
3.294009208679199,-0.526724365234, 2.14999309082, 9.26795462646, -1.0534351145, -1.59541984733, -0.534351145038
3.2960731983184814,-0.526724365234, 2.14999309082, 9.26795462646, -1.0534351145, -1.59541984733, -0.534351145038
3.298114061355591,-0.526724365234, 2.14999309082, 9.26795462646, -1.0534351145, -1.59541984733, -0.534351145038
3.3001861572265625,-0.526724365234, 2.14999309082, 9.26795462646, -1.0534351145, -1.59541984733, -0.534351145038
3.3020131587982178,-0.526724365234, 2.14999309082, 9.26795462646, -1.0534351145, -1.59541984733, -0.534351145038
3.303901195526123,-0.526724365234, 2.14999309082, 9.26795462646, -1.0534351145, -1.59541984733, -0.534351145038
3.306361198425293,-0.526724365234, 2.14999309082, 9.26795462646, -1.0534351145, -1.59541984733, -0.534351145038
3.3096671104431152,-0.526724365234, 2.14999309082, 9.26795462646, -1.0534351145, -1.59541984733, -0.534351145038
3.3134851455688477,-0.526724365234, 2.14999309082, 9.26795462646, -1.0534351145, -1.59541984733, -0.534351145038
3.3180789947509766,-0.526724365234, 2.14999309082, 9.26795462646, -1.0534351145, -1.59541984733, -0.534351145038
3.3222789764404297,-0.526724365234, 2.14999309082, 9.26795462646, -1.0534351145, -1.59541984733, -0.534351145038
3.325949192047119,-0.526724365234, 2.14999309082, 9.26795462646, -1.0534351145, -1.59541984733, -0.534351145038
3.330379009246826,-0.526724365234, 2.14999309082, 9.26795462646, -1.0534351145, -1.59541984733, -0.534351145038
3.334616184234619,-0.526724365234, 2.14999309082, 9.26795462646, -1.0534351145, -1.59541984733, -0.534351145038
3.341618061065674,-0.656011254883, 2.23857855225, 9.27274302979, -0.893129770992, -1.59541984733, -0.679389312977
3.347029209136963,-0.656011254883, 2.23857855225, 9.27274302979, -0.893129770992, -1.59541984733, -0.679389312977
3.359483003616333,-0.656011254883, 2.23857855225, 9.27274302979, -0.893129770992, -1.59541984733, -0.679389312977
3.3654091358184814,-0.656011254883, 2.23857855225, 9.27274302979, -0.893129770992, -1.59541984733, -0.679389312977
3.3697030544281006,-0.656011254883, 2.23857855225, 9.27274302979, -0.893129770992, -1.59541984733, -0.679389312977
3.3740651607513428,-0.656011254883, 2.23857855225, 9.27274302979, -0.893129770992, -1.59541984733, -0.679389312977
3.3858602046966553,-0.656011254883, 2.23857855225, 9.27274302979, -0.893129770992, -1.59541984733, -0.679389312977
3.3914661407470703,-0.656011254883, 2.23857855225, 9.27274302979, -0.893129770992, -1.59541984733, -0.679389312977
3.3965489864349365,-0.656011254883, 2.23857855225, 9.27274302979, -0.893129770992, -1.59541984733, -0.679389312977
3.399057149887085,-0.656011254883, 2.23857855225, 9.27274302979, -0.893129770992, -1.59541984733, -0.679389312977
3.4055211544036865,-0.656011254883, 2.23857855225, 9.27274302979, -0.893129770992, -1.59541984733, -0.679389312977
3.4131832122802734,-0.656011254883, 2.23857855225, 9.27274302979, -0.893129770992, -1.59541984733, -0.679389312977
3.4254209995269775,-0.656011254883, 2.23857855225, 9.27274302979, -0.893129770992, -1.59541984733, -0.679389312977
3.4384100437164307,-0.656011254883, 2.23857855225, 9.27274302979, -0.893129770992, -1.59541984733, -0.679389312977
3.4483611583709717,-0.656011254883, 2.23857855225, 9.27274302979, -0.893129770992, -1.59541984733, -0.679389312977
3.458252191543579,-0.61770402832, 2.22660754395, 9.35414588623, -1.02290076336, -1.62595419847, -0.488549618321
3.4873411655426025,-0.61770402832, 2.22660754395, 9.35414588623, -1.02290076336, -1.62595419847, -0.488549618321
3.4905030727386475,-0.61770402832, 2.22660754395, 9.35414588623, -1.02290076336, -1.62595419847, -0.488549618321
3.495086193084717,-0.61770402832, 2.22660754395, 9.35414588623, -1.02290076336, -1.62595419847, -0.488549618321
3.498721122741699,-0.61770402832, 2.22660754395, 9.35414588623, -1.02290076336, -1.62595419847, -0.488549618321
3.5015439987182617,-0.61770402832, 2.22660754395, 9.35414588623, -1.02290076336, -1.62595419847, -0.488549618321
3.5051209926605225,-0.61770402832, 2.22660754395, 9.35414588623, -1.02290076336, -1.62595419847, -0.488549618321
3.508660078048706,-0.61770402832, 2.22660754395, 9.35414588623, -1.02290076336, -1.62595419847, -0.488549618321
3.5117690563201904,-0.61770402832, 2.22660754395, 9.35414588623, -1.02290076336, -1.62595419847, -0.488549618321
3.515510082244873,-0.61770402832, 2.22660754395, 9.35414588623, -1.02290076336, -1.62595419847, -0.488549618321
3.5190610885620117,-0.61770402832, 2.22660754395, 9.35414588623, -1.02290076336, -1.62595419847, -0.488549618321
3.521031141281128,-0.61770402832, 2.22660754395, 9.35414588623, -1.02290076336, -1.62595419847, -0.488549618321
3.5238211154937744,-0.61770402832, 2.22660754395, 9.35414588623, -1.02290076336, -1.62595419847, -0.488549618321
3.528346061706543,-0.61770402832, 2.22660754395, 9.35414588623, -1.02290076336, -1.62595419847, -0.488549618321
3.5327091217041016,-0.61770402832, 2.22660754395, 9.35414588623, -1.02290076336, -1.62595419847, -0.488549618321
3.543955087661743,-0.612915625, 2.24336695557, 9.24401260986, -0.847328244275, -1.52671755725, -0.595419847328
3.559624195098877,-0.612915625, 2.24336695557, 9.24401260986, -0.847328244275, -1.52671755725, -0.595419847328
3.563439130783081,-0.612915625, 2.24336695557, 9.24401260986, -0.847328244275, -1.52671755725, -0.595419847328
3.5677850246429443,-0.612915625, 2.24336695557, 9.24401260986, -0.847328244275, -1.52671755725, -0.595419847328
3.5766282081604004,-0.612915625, 2.24336695557, 9.24401260986, -0.847328244275, -1.52671755725, -0.595419847328
3.5797011852264404,-0.612915625, 2.24336695557, 9.24401260986, -0.847328244275, -1.52671755725, -0.595419847328
3.5871901512145996,-0.612915625, 2.24336695557, 9.24401260986, -0.847328244275, -1.52671755725, -0.595419847328
3.591762065887451,-0.612915625, 2.24336695557, 9.24401260986, -0.847328244275, -1.52671755725, -0.595419847328
3.5960640907287598,-0.612915625, 2.24336695557, 9.24401260986, -0.847328244275, -1.52671755725, -0.595419847328
3.601595163345337,-0.612915625, 2.24336695557, 9.24401260986, -0.847328244275, -1.52671755725, -0.595419847328
3.609739065170288,-0.612915625, 2.24336695557, 9.24401260986, -0.847328244275, -1.52671755725, -0.595419847328
3.6140010356903076,-0.612915625, 2.24336695557, 9.24401260986, -0.847328244275, -1.52671755725, -0.595419847328
3.617525100708008,-0.612915625, 2.24336695557, 9.24401260986, -0.847328244275, -1.52671755725, -0.595419847328
3.6210501194000244,-0.612915625, 2.24336695557, 9.24401260986, -0.847328244275, -1.52671755725, -0.595419847328
3.624272108078003,-0.612915625, 2.24336695557, 9.24401260986, -0.847328244275, -1.52671755725, -0.595419847328
3.62900710105896,-0.612915625, 2.24336695557, 9.24401260986, -0.847328244275, -1.52671755725, -0.595419847328
3.632596015930176,-0.612915625, 2.24336695557, 9.24401260986, -0.847328244275, -1.52671755725, -0.595419847328
3.6403160095214844,-0.744596716309, 2.41096107178, 9.19612857666, -0.748091603053, -1.51908396947, -0.549618320611
3.6438310146331787,-0.744596716309, 2.41096107178, 9.19612857666, -0.748091603053, -1.51908396947, -0.549618320611
3.646996021270752,-0.744596716309, 2.41096107178, 9.19612857666, -0.748091603053, -1.51908396947, -0.549618320611
3.6491010189056396,-0.744596716309, 2.41096107178, 9.19612857666, -0.748091603053, -1.51908396947, -0.549618320611
3.652409076690674,-0.744596716309, 2.41096107178, 9.19612857666, -0.748091603053, -1.51908396947, -0.549618320611
3.6575140953063965,-0.744596716309, 2.41096107178, 9.19612857666, -0.748091603053, -1.51908396947, -0.549618320611
3.669985055923462,-0.744596716309, 2.41096107178, 9.19612857666, -0.748091603053, -1.51908396947, -0.549618320611
3.6924471855163574,-0.744596716309, 2.41096107178, 9.19612857666, -0.748091603053, -1.51908396947, -0.549618320611
3.69608998298645,-0.744596716309, 2.41096107178, 9.19612857666, -0.748091603053, -1.51908396947, -0.549618320611
3.7021939754486084,-0.744596716309, 2.41096107178, 9.19612857666, -0.748091603053, -1.51908396947, -0.549618320611
3.706573009490967,-0.744596716309, 2.41096107178, 9.19612857666, -0.748091603053, -1.51908396947, -0.549618320611
3.7115070819854736,-0.744596716309, 2.41096107178, 9.19612857666, -0.748091603053, -1.51908396947, -0.549618320611
3.716078996658325,-0.744596716309, 2.41096107178, 9.19612857666, -0.748091603053, -1.51908396947, -0.549618320611
3.720515012741089,-0.744596716309, 2.41096107178, 9.19612857666, -0.748091603053, -1.51908396947, -0.549618320611
3.7248950004577637,-0.744596716309, 2.41096107178, 9.19612857666, -0.748091603053, -1.51908396947, -0.549618320611
3.73262619972229,-0.744596716309, 2.41096107178, 9.19612857666, -0.748091603053, -1.51908396947, -0.549618320611
3.741788148880005,-0.622492431641, 2.27449157715, 9.30147344971, -0.992366412214, -1.4427480916, -0.572519083969
3.7450711727142334,-0.622492431641, 2.27449157715, 9.30147344971, -0.992366412214, -1.4427480916, -0.572519083969
3.748775005340576,-0.622492431641, 2.27449157715, 9.30147344971, -0.992366412214, -1.4427480916, -0.572519083969
3.752336025238037,-0.622492431641, 2.27449157715, 9.30147344971, -0.992366412214, -1.4427480916, -0.572519083969
3.7565970420837402,-0.622492431641, 2.27449157715, 9.30147344971, -0.992366412214, -1.4427480916, -0.572519083969
3.7647440433502197,-0.622492431641, 2.27449157715, 9.30147344971, -0.992366412214, -1.4427480916, -0.572519083969
3.7685160636901855,-0.622492431641, 2.27449157715, 9.30147344971, -0.992366412214, -1.4427480916, -0.572519083969
3.7772130966186523,-0.622492431641, 2.27449157715, 9.30147344971, -0.992366412214, -1.4427480916, -0.572519083969
3.7820839881896973,-0.622492431641, 2.27449157715, 9.30147344971, -0.992366412214, -1.4427480916, -0.572519083969
3.786600112915039,-0.622492431641, 2.27449157715, 9.30147344971, -0.992366412214, -1.4427480916, -0.572519083969
3.7932560443878174,-0.622492431641, 2.27449157715, 9.30147344971, -0.992366412214, -1.4427480916, -0.572519083969
3.7995760440826416,-0.622492431641, 2.27449157715, 9.30147344971, -0.992366412214, -1.4427480916, -0.572519083969
3.803605079650879,-0.622492431641, 2.27449157715, 9.30147344971, -0.992366412214, -1.4427480916, -0.572519083969
3.8079521656036377,-0.622492431641, 2.27449157715, 9.30147344971, -0.992366412214, -1.4427480916, -0.572519083969
3.811436176300049,-0.622492431641, 2.27449157715, 9.30147344971, -0.992366412214, -1.4427480916, -0.572519083969
3.8157031536102295,-0.622492431641, 2.27449157715, 9.30147344971, -0.992366412214, -1.4427480916, -0.572519083969
3.820730209350586,-0.622492431641, 2.27449157715, 9.30147344971, -0.992366412214, -1.4427480916, -0.572519083969
3.82502818107605,-0.622492431641, 2.27449157715, 9.30147344971, -0.992366412214, -1.4427480916, -0.572519083969
3.829041004180908,-0.622492431641, 2.27449157715, 9.30147344971, -0.992366412214, -1.4427480916, -0.572519083969
3.8324451446533203,-0.622492431641, 2.27449157715, 9.30147344971, -0.992366412214, -1.4427480916, -0.572519083969
3.839862108230591,-0.648828649902, 2.26730897217, 9.20809958496, -1.01526717557, -1.73282442748, -0.267175572519
3.8422930240631104,-0.648828649902, 2.26730897217, 9.20809958496, -1.01526717557, -1.73282442748, -0.267175572519
3.8475430011749268,-0.648828649902, 2.26730897217, 9.20809958496, -1.01526717557, -1.73282442748, -0.267175572519
3.859827995300293,-0.648828649902, 2.26730897217, 9.20809958496, -1.01526717557, -1.73282442748, -0.267175572519
3.8675220012664795,-0.648828649902, 2.26730897217, 9.20809958496, -1.01526717557, -1.73282442748, -0.267175572519
3.8713951110839844,-0.648828649902, 2.26730897217, 9.20809958496, -1.01526717557, -1.73282442748, -0.267175572519
3.8807129859924316,-0.648828649902, 2.26730897217, 9.20809958496, -1.01526717557, -1.73282442748, -0.267175572519
3.8833680152893066,-0.648828649902, 2.26730897217, 9.20809958496, -1.01526717557, -1.73282442748, -0.267175572519
3.886331081390381,-0.648828649902, 2.26730897217, 9.20809958496, -1.01526717557, -1.73282442748, -0.267175572519
3.8901431560516357,-0.648828649902, 2.26730897217, 9.20809958496, -1.01526717557, -1.73282442748, -0.267175572519
3.8938660621643066,-0.648828649902, 2.26730897217, 9.20809958496, -1.01526717557, -1.73282442748, -0.267175572519
3.8966920375823975,-0.648828649902, 2.26730897217, 9.20809958496, -1.01526717557, -1.73282442748, -0.267175572519
3.899651050567627,-0.648828649902, 2.26730897217, 9.20809958496, -1.01526717557, -1.73282442748, -0.267175572519
3.901506185531616,-0.648828649902, 2.26730897217, 9.20809958496, -1.01526717557, -1.73282442748, -0.267175572519
3.904242992401123,-0.648828649902, 2.26730897217, 9.20809958496, -1.01526717557, -1.73282442748, -0.267175572519
3.9087212085723877,-0.648828649902, 2.26730897217, 9.20809958496, -1.01526717557, -1.73282442748, -0.267175572519
3.9123129844665527,-0.648828649902, 2.26730897217, 9.20809958496, -1.01526717557, -1.73282442748, -0.267175572519
3.9156410694122314,-0.648828649902, 2.26730897217, 9.20809958496, -1.01526717557, -1.73282442748, -0.267175572519
3.91762113571167,-0.648828649902, 2.26730897217, 9.20809958496, -1.01526717557, -1.73282442748, -0.267175572519
3.9194960594177246,-0.648828649902, 2.26730897217, 9.20809958496, -1.01526717557, -1.73282442748, -0.267175572519
3.9213390350341797,-0.648828649902, 2.26730897217, 9.20809958496, -1.01526717557, -1.73282442748, -0.267175572519
3.9234671592712402,-0.648828649902, 2.26730897217, 9.20809958496, -1.01526717557, -1.73282442748, -0.267175572519
3.925499200820923,-0.648828649902, 2.26730897217, 9.20809958496, -1.01526717557, -1.73282442748, -0.267175572519
3.9279000759124756,-0.648828649902, 2.26730897217, 9.20809958496, -1.01526717557, -1.73282442748, -0.267175572519
3.92992901802063,-0.648828649902, 2.26730897217, 9.20809958496, -1.01526717557, -1.73282442748, -0.267175572519
3.9356911182403564,-0.562637390137, 2.25054956055, 9.27992563477, -0.954198473282, -1.5572519084, -0.557251908397
3.9379241466522217,-0.562637390137, 2.25054956055, 9.27992563477, -0.954198473282, -1.5572519084, -0.557251908397
3.9397971630096436,-0.562637390137, 2.25054956055, 9.27992563477, -0.954198473282, -1.5572519084, -0.557251908397
3.9416611194610596,-0.562637390137, 2.25054956055, 9.27992563477, -0.954198473282, -1.5572519084, -0.557251908397
3.9436609745025635,-0.562637390137, 2.25054956055, 9.27992563477, -0.954198473282, -1.5572519084, -0.557251908397
3.9459919929504395,-0.562637390137, 2.25054956055, 9.27992563477, -0.954198473282, -1.5572519084, -0.557251908397
3.9574501514434814,-0.562637390137, 2.25054956055, 9.27992563477, -0.954198473282, -1.5572519084, -0.557251908397
3.9609341621398926,-0.562637390137, 2.25054956055, 9.27992563477, -0.954198473282, -1.5572519084, -0.557251908397
3.964686155319214,-0.562637390137, 2.25054956055, 9.27992563477, -0.954198473282, -1.5572519084, -0.557251908397
3.968299150466919,-0.562637390137, 2.25054956055, 9.27992563477, -0.954198473282, -1.5572519084, -0.557251908397
3.9722890853881836,-0.562637390137, 2.25054956055, 9.27992563477, -0.954198473282, -1.5572519084, -0.557251908397
3.99206805229187,-0.562637390137, 2.25054956055, 9.27992563477, -0.954198473282, -1.5572519084, -0.557251908397
3.997098207473755,-0.562637390137, 2.25054956055, 9.27992563477, -0.954198473282, -1.5572519084, -0.557251908397
4.001981019973755,-0.562637390137, 2.25054956055, 9.27992563477, -0.954198473282, -1.5572519084, -0.557251908397
4.006116151809692,-0.562637390137, 2.25054956055, 9.27992563477, -0.954198473282, -1.5572519084, -0.557251908397
4.015426158905029,-0.562637390137, 2.25054956055, 9.27992563477, -0.954198473282, -1.5572519084, -0.557251908397
4.019529104232788,-0.562637390137, 2.25054956055, 9.27992563477, -0.954198473282, -1.5572519084, -0.557251908397
4.023284196853638,-0.562637390137, 2.25054956055, 9.27992563477, -0.954198473282, -1.5572519084, -0.557251908397
4.02678108215332,-0.562637390137, 2.25054956055, 9.27992563477, -0.954198473282, -1.5572519084, -0.557251908397
4.030256032943726,-0.562637390137, 2.25054956055, 9.27992563477, -0.954198473282, -1.5572519084, -0.557251908397
4.038531064987183,-0.61770402832, 2.21942493896, 9.27513723145, -0.786259541985, -1.64885496183, -0.587786259542
4.046947002410889,-0.61770402832, 2.21942493896, 9.27513723145, -0.786259541985, -1.64885496183, -0.587786259542
4.050455093383789,-0.61770402832, 2.21942493896, 9.27513723145, -0.786259541985, -1.64885496183, -0.587786259542
4.052617073059082,-0.61770402832, 2.21942493896, 9.27513723145, -0.786259541985, -1.64885496183, -0.587786259542
4.056658983230591,-0.61770402832, 2.21942493896, 9.27513723145, -0.786259541985, -1.64885496183, -0.587786259542
4.06134819984436,-0.61770402832, 2.21942493896, 9.27513723145, -0.786259541985, -1.64885496183, -0.587786259542
4.066723108291626,-0.61770402832, 2.21942493896, 9.27513723145, -0.786259541985, -1.64885496183, -0.587786259542
4.074454069137573,-0.61770402832, 2.21942493896, 9.27513723145, -0.786259541985, -1.64885496183, -0.587786259542
4.085107088088989,-0.61770402832, 2.21942493896, 9.27513723145, -0.786259541985, -1.64885496183, -0.587786259542
4.089195013046265,-0.61770402832, 2.21942493896, 9.27513723145, -0.786259541985, -1.64885496183, -0.587786259542
4.093111038208008,-0.61770402832, 2.21942493896, 9.27513723145, -0.786259541985, -1.64885496183, -0.587786259542
4.096719026565552,-0.61770402832, 2.21942493896, 9.27513723145, -0.786259541985, -1.64885496183, -0.587786259542
4.100500106811523,-0.61770402832, 2.21942493896, 9.27513723145, -0.786259541985, -1.64885496183, -0.587786259542
4.1041741371154785,-0.61770402832, 2.21942493896, 9.27513723145, -0.786259541985, -1.64885496183, -0.587786259542
4.108218193054199,-0.61770402832, 2.21942493896, 9.27513723145, -0.786259541985, -1.64885496183, -0.587786259542
4.111954212188721,-0.61770402832, 2.21942493896, 9.27513723145, -0.786259541985, -1.64885496183, -0.587786259542
4.115647077560425,-0.61770402832, 2.21942493896, 9.27513723145, -0.786259541985, -1.64885496183, -0.587786259542
4.1180260181427,-0.61770402832, 2.21942493896, 9.27513723145, -0.786259541985, -1.64885496183, -0.587786259542
4.122280120849609,-0.61770402832, 2.21942493896, 9.27513723145, -0.786259541985, -1.64885496183, -0.587786259542
4.127135992050171,-0.61770402832, 2.21942493896, 9.27513723145, -0.786259541985, -1.64885496183, -0.587786259542
4.140655994415283,-0.61770402832, 2.21942493896, 9.27513723145, -0.786259541985, -1.64885496183, -0.587786259542
4.150228977203369,-0.672770666504, 2.27927998047, 9.29668504639, -0.870229007634, -1.58778625954, -0.541984732824
4.15340518951416,-0.672770666504, 2.27927998047, 9.29668504639, -0.870229007634, -1.58778625954, -0.541984732824
4.157358169555664,-0.672770666504, 2.27927998047, 9.29668504639, -0.870229007634, -1.58778625954, -0.541984732824
4.174870014190674,-0.672770666504, 2.27927998047, 9.29668504639, -0.870229007634, -1.58778625954, -0.541984732824
4.179462194442749,-0.672770666504, 2.27927998047, 9.29668504639, -0.870229007634, -1.58778625954, -0.541984732824
4.193688154220581,-0.672770666504, 2.27927998047, 9.29668504639, -0.870229007634, -1.58778625954, -0.541984732824
4.2003700733184814,-0.672770666504, 2.27927998047, 9.29668504639, -0.870229007634, -1.58778625954, -0.541984732824
4.205954074859619,-0.672770666504, 2.27927998047, 9.29668504639, -0.870229007634, -1.58778625954, -0.541984732824
4.211831092834473,-0.672770666504, 2.27927998047, 9.29668504639, -0.870229007634, -1.58778625954, -0.541984732824
4.216018199920654,-0.672770666504, 2.27927998047, 9.29668504639, -0.870229007634, -1.58778625954, -0.541984732824
4.2223591804504395,-0.672770666504, 2.27927998047, 9.29668504639, -0.870229007634, -1.58778625954, -0.541984732824
4.226078033447266,-0.672770666504, 2.27927998047, 9.29668504639, -0.870229007634, -1.58778625954, -0.541984732824
4.231542110443115,-0.672770666504, 2.27927998047, 9.29668504639, -0.870229007634, -1.58778625954, -0.541984732824
4.23914909362793,-0.567425793457, 2.26730897217, 9.39005891113, -0.923664122137, -1.64122137405, -0.511450381679
4.2419281005859375,-0.567425793457, 2.26730897217, 9.39005891113, -0.923664122137, -1.64122137405, -0.511450381679
4.2477641105651855,-0.567425793457, 2.26730897217, 9.39005891113, -0.923664122137, -1.64122137405, -0.511450381679
4.249511003494263,-0.567425793457, 2.26730897217, 9.39005891113, -0.923664122137, -1.64122137405, -0.511450381679
4.251806020736694,-0.567425793457, 2.26730897217, 9.39005891113, -0.923664122137, -1.64122137405, -0.511450381679
4.254044055938721,-0.567425793457, 2.26730897217, 9.39005891113, -0.923664122137, -1.64122137405, -0.511450381679
4.256008148193359,-0.567425793457, 2.26730897217, 9.39005891113, -0.923664122137, -1.64122137405, -0.511450381679
4.258210182189941,-0.567425793457, 2.26730897217, 9.39005891113, -0.923664122137, -1.64122137405, -0.511450381679
4.260163068771362,-0.567425793457, 2.26730897217, 9.39005891113, -0.923664122137, -1.64122137405, -0.511450381679
4.263313055038452,-0.567425793457, 2.26730897217, 9.39005891113, -0.923664122137, -1.64122137405, -0.511450381679
4.26804518699646,-0.567425793457, 2.26730897217, 9.39005891113, -0.923664122137, -1.64122137405, -0.511450381679
4.279841184616089,-0.567425793457, 2.26730897217, 9.39005891113, -0.923664122137, -1.64122137405, -0.511450381679
4.285737037658691,-0.567425793457, 2.26730897217, 9.39005891113, -0.923664122137, -1.64122137405, -0.511450381679
4.290089130401611,-0.567425793457, 2.26730897217, 9.39005891113, -0.923664122137, -1.64122137405, -0.511450381679
4.293688058853149,-0.567425793457, 2.26730897217, 9.39005891113, -0.923664122137, -1.64122137405, -0.511450381679
4.297260046005249,-0.567425793457, 2.26730897217, 9.39005891113, -0.923664122137, -1.64122137405, -0.511450381679
4.301391124725342,-0.567425793457, 2.26730897217, 9.39005891113, -0.923664122137, -1.64122137405, -0.511450381679
4.308773040771484,-0.567425793457, 2.26730897217, 9.39005891113, -0.923664122137, -1.64122137405, -0.511450381679
4.313064098358154,-0.567425793457, 2.26730897217, 9.39005891113, -0.923664122137, -1.64122137405, -0.511450381679
4.318436145782471,-0.567425793457, 2.26730897217, 9.39005891113, -0.923664122137, -1.64122137405, -0.511450381679
4.32264518737793,-0.567425793457, 2.26730897217, 9.39005891113, -0.923664122137, -1.64122137405, -0.511450381679
4.326920032501221,-0.567425793457, 2.26730897217, 9.39005891113, -0.923664122137, -1.64122137405, -0.511450381679
4.329617977142334,-0.567425793457, 2.26730897217, 9.39005891113, -0.923664122137, -1.64122137405, -0.511450381679
4.339958190917969,-0.62009822998, 2.25533796387, 9.34217487793, -0.809160305344, -1.71755725191, -0.587786259542
4.3467020988464355,-0.62009822998, 2.25533796387, 9.34217487793, -0.809160305344, -1.71755725191, -0.587786259542
4.370321035385132,-0.62009822998, 2.25533796387, 9.34217487793, -0.809160305344, -1.71755725191, -0.587786259542
4.384913206100464,-0.62009822998, 2.25533796387, 9.34217487793, -0.809160305344, -1.71755725191, -0.587786259542
4.398952007293701,-0.62009822998, 2.25533796387, 9.34217487793, -0.809160305344, -1.71755725191, -0.587786259542
4.403294086456299,-0.62009822998, 2.25533796387, 9.34217487793, -0.809160305344, -1.71755725191, -0.587786259542
4.413731098175049,-0.62009822998, 2.25533796387, 9.34217487793, -0.809160305344, -1.71755725191, -0.587786259542
4.422863006591797,-0.62009822998, 2.25533796387, 9.34217487793, -0.809160305344, -1.71755725191, -0.587786259542
4.426954984664917,-0.62009822998, 2.25533796387, 9.34217487793, -0.809160305344, -1.71755725191, -0.587786259542
4.442077159881592,-0.61530982666, 2.24576115723, 9.26077202148, -0.992366412214, -1.53435114504, -0.442748091603
4.446983098983765,-0.61530982666, 2.24576115723, 9.26077202148, -0.992366412214, -1.53435114504, -0.442748091603
4.459581136703491,-0.61530982666, 2.24576115723, 9.26077202148, -0.992366412214, -1.53435114504, -0.442748091603
4.465736150741577,-0.61530982666, 2.24576115723, 9.26077202148, -0.992366412214, -1.53435114504, -0.442748091603
4.48407506942749,-0.61530982666, 2.24576115723, 9.26077202148, -0.992366412214, -1.53435114504, -0.442748091603
4.487884998321533,-0.61530982666, 2.24576115723, 9.26077202148, -0.992366412214, -1.53435114504, -0.442748091603
4.490701198577881,-0.61530982666, 2.24576115723, 9.26077202148, -0.992366412214, -1.53435114504, -0.442748091603
4.4932780265808105,-0.61530982666, 2.24576115723, 9.26077202148, -0.992366412214, -1.53435114504, -0.442748091603
4.495855093002319,-0.61530982666, 2.24576115723, 9.26077202148, -0.992366412214, -1.53435114504, -0.442748091603
4.4993040561676025,-0.61530982666, 2.24576115723, 9.26077202148, -0.992366412214, -1.53435114504, -0.442748091603
4.502788066864014,-0.61530982666, 2.24576115723, 9.26077202148, -0.992366412214, -1.53435114504, -0.442748091603
