time,acceX,acceY,acceZ,gyroX,gyroY,gyroZ
0.040772199630737305,,0,0,0,0
0.04806208610534668,,0,0,0,0
0.04915118217468262,,0,0,0,0
0.05034303665161133,,0,0,0,0
0.05136704444885254,,0,0,0,0
0.06487917900085449,,0,0,0,0
0.07604598999023438,,0,0,0,0
0.07754111289978027,,0,0,0,0
0.07858610153198242,,0,0,0,0
0.0796811580657959,,0,0,0,0
0.08099699020385742,,0,0,0,0
0.08171916007995605,,0,0,0,0
0.08280205726623535,,0,0,0,0
0.08378314971923828,,0,0,0,0
0.08452820777893066,,0,0,0,0
0.0852961540222168,,0,0,0,0
0.08600020408630371,,0,0,0,0
0.08716607093811035,,0,0,0,0
0.08828520774841309,,0,0,0,0
0.08918404579162598,,0,0,0,0
0.09003210067749023,,0,0,0,0
0.09136700630187988,,0,0,0,0
0.09500813484191895,,0,0,0,0
0.09634208679199219,,0,0,0,0
0.09739804267883301,,0,0,0,0
0.0982820987701416,,0,0,0,0
0.09899306297302246,,0,0,0,0
0.09966111183166504,,0,0,0,0
0.10036897659301758,,0,0,0,0
0.10137820243835449,,0,0,0,0
0.10211801528930664,,0,0,0,0
0.10289812088012695,,0,0,0,0
0.10368514060974121,,0,0,0,0
0.10446000099182129,,0,0,0,0
0.10520601272583008,,0,0,0,0
0.10587215423583984,,0,0,0,0
0.10663819313049316,,0,0,0,0
0.10738205909729004,,0,0,0,0
0.10803508758544922,,0,0,0,0
0.10873103141784668,,0,0,0,0
0.10941600799560547,,0,0,0,0
0.11010217666625977,,0,0,0,0
0.11082220077514648,,0,0,0,0
0.11154818534851074,,0,0,0,0
0.1123201847076416,,0,0,0,0
0.11313915252685547,,0,0,0,0
0.11379003524780273,,0,0,0,0
0.11447501182556152,,0,0,0,0
0.13941597938537598,,0,0,0,0
0.14139699935913086,,0,0,0,0
0.14354801177978516,,0,0,0,0
0.14585208892822266,,0,0,0,0
0.14895200729370117,,0,0,0,0
0.1504499912261963,,0,0,0,0
0.15348219871520996,,0,0,0,0
0.15572619438171387,,0,0,0,0
0.15792202949523926,,0,0,0,0
0.15920019149780273,,0,0,0,0
0.1605541706085205,,0,0,0,0
0.16484999656677246,,0,0,0,0
0.16813206672668457,,0,0,0,0
0.17172908782958984,,0,0,0,0
0.17933011054992676,-1.35751234131, 0.533906970215, 9.48103857422, 30.8244274809, -1.11450381679, -0.129770992366
0.18325114250183105,-1.35751234131, 0.533906970215, 9.48103857422, 30.8244274809, -1.11450381679, -0.129770992366
0.18572020530700684,-1.35751234131, 0.533906970215, 9.48103857422, 30.8244274809, -1.11450381679, -0.129770992366
0.18794512748718262,-1.35751234131, 0.533906970215, 9.48103857422, 30.8244274809, -1.11450381679, -0.129770992366
0.19015097618103027,-1.35751234131, 0.533906970215, 9.48103857422, 30.8244274809, -1.11450381679, -0.129770992366
0.19279909133911133,-1.35751234131, 0.533906970215, 9.48103857422, 30.8244274809, -1.11450381679, -0.129770992366
0.19497919082641602,-1.35751234131, 0.533906970215, 9.48103857422, 30.8244274809, -1.11450381679, -0.129770992366
0.19745707511901855,-1.35751234131, 0.533906970215, 9.48103857422, 30.8244274809, -1.11450381679, -0.129770992366
0.20033502578735352,-1.35751234131, 0.533906970215, 9.48103857422, 30.8244274809, -1.11450381679, -0.129770992366
0.20336318016052246,-1.35751234131, 0.533906970215, 9.48103857422, 30.8244274809, -1.11450381679, -0.129770992366
0.20458602905273438,-1.35751234131, 0.533906970215, 9.48103857422, 30.8244274809, -1.11450381679, -0.129770992366
0.2064051628112793,-1.35751234131, 0.533906970215, 9.48103857422, 30.8244274809, -1.11450381679, -0.129770992366
0.20969009399414062,-1.35751234131, 0.533906970215, 9.48103857422, 30.8244274809, -1.11450381679, -0.129770992366
0.21335101127624512,-1.35751234131, 0.533906970215, 9.48103857422, 30.8244274809, -1.11450381679, -0.129770992366
0.21611905097961426,-1.35751234131, 0.533906970215, 9.48103857422, 30.8244274809, -1.11450381679, -0.129770992366
0.22437405586242676,-1.35751234131, 0.533906970215, 9.48103857422, 30.8244274809, -1.11450381679, -0.129770992366
0.23042798042297363,-1.35751234131, 0.533906970215, 9.48103857422, 30.8244274809, -1.11450381679, -0.129770992366
0.2327871322631836,-1.35751234131, 0.533906970215, 9.48103857422, 30.8244274809, -1.11450381679, -0.129770992366
0.2347550392150879,-1.35751234131, 0.533906970215, 9.48103857422, 30.8244274809, -1.11450381679, -0.129770992366
0.23659610748291016,-1.35751234131, 0.533906970215, 9.48103857422, 30.8244274809, -1.11450381679, -0.129770992366
0.23983407020568848,-1.35751234131, 0.533906970215, 9.48103857422, 30.8244274809, -1.11450381679, -0.129770992366
0.2422630786895752,-1.35751234131, 0.533906970215, 9.48103857422, 30.8244274809, -1.11450381679, -0.129770992366
0.2442631721496582,-1.35751234131, 0.533906970215, 9.48103857422, 30.8244274809, -1.11450381679, -0.129770992366
0.24631118774414062,-1.35751234131, 0.533906970215, 9.48103857422, 30.8244274809, -1.11450381679, -0.129770992366
0.24890518188476562,-1.35751234131, 0.533906970215, 9.48103857422, 30.8244274809, -1.11450381679, -0.129770992366
0.2519211769104004,-1.35751234131, 0.533906970215, 9.48103857422, 30.8244274809, -1.11450381679, -0.129770992366
0.2539520263671875,-1.35751234131, 0.533906970215, 9.48103857422, 30.8244274809, -1.11450381679, -0.129770992366
0.2559230327606201,-1.35751234131, 0.533906970215, 9.48103857422, 30.8244274809, -1.11450381679, -0.129770992366
0.25780606269836426,-1.35751234131, 0.533906970215, 9.48103857422, 30.8244274809, -1.11450381679, -0.129770992366
0.2589271068572998,-1.35751234131, 0.533906970215, 9.48103857422, 30.8244274809, -1.11450381679, -0.129770992366
0.260667085647583,-1.35751234131, 0.533906970215, 9.48103857422, 30.8244274809, -1.11450381679, -0.129770992366
0.263228178024292,-1.35751234131, 0.533906970215, 9.48103857422, 30.8244274809, -1.11450381679, -0.129770992366
0.26592302322387695,-1.35751234131, 0.533906970215, 9.48103857422, 30.8244274809, -1.11450381679, -0.129770992366
0.26906704902648926,-1.35751234131, 0.533906970215, 9.48103857422, 30.8244274809, -1.11450381679, -0.129770992366
0.27274203300476074,-1.35751234131, 0.533906970215, 9.48103857422, 30.8244274809, -1.11450381679, -0.129770992366
0.2796361446380615,-1.23540805664, 0.490811340332, 9.62229647217, 30.8854961832, -1.16030534351, -0.351145038168
0.28156614303588867,-1.23540805664, 0.490811340332, 9.62229647217, 30.8854961832, -1.16030534351, -0.351145038168
0.284027099609375,-1.23540805664, 0.490811340332, 9.62229647217, 30.8854961832, -1.16030534351, -0.351145038168
0.2859060764312744,-1.23540805664, 0.490811340332, 9.62229647217, 30.8854961832, -1.16030534351, -0.351145038168
0.2878000736236572,-1.23540805664, 0.490811340332, 9.62229647217, 30.8854961832, -1.16030534351, -0.351145038168
0.2901031970977783,-1.23540805664, 0.490811340332, 9.62229647217, 30.8854961832, -1.16030534351, -0.351145038168
0.2921020984649658,-1.23540805664, 0.490811340332, 9.62229647217, 30.8854961832, -1.16030534351, -0.351145038168
0.2941579818725586,-1.23540805664, 0.490811340332, 9.62229647217, 30.8854961832, -1.16030534351, -0.351145038168
0.2959752082824707,-1.23540805664, 0.490811340332, 9.62229647217, 30.8854961832, -1.16030534351, -0.351145038168
0.29772305488586426,-1.23540805664, 0.490811340332, 9.62229647217, 30.8854961832, -1.16030534351, -0.351145038168
0.29921817779541016,-1.23540805664, 0.490811340332, 9.62229647217, 30.8854961832, -1.16030534351, -0.351145038168
0.30112600326538086,-1.23540805664, 0.490811340332, 9.62229647217, 30.8854961832, -1.16030534351, -0.351145038168
0.3026871681213379,-1.23540805664, 0.490811340332, 9.62229647217, 30.8854961832, -1.16030534351, -0.351145038168
0.3041260242462158,-1.23540805664, 0.490811340332, 9.62229647217, 30.8854961832, -1.16030534351, -0.351145038168
0.3055729866027832,-1.23540805664, 0.490811340332, 9.62229647217, 30.8854961832, -1.16030534351, -0.351145038168
0.3072822093963623,-1.23540805664, 0.490811340332, 9.62229647217, 30.8854961832, -1.16030534351, -0.351145038168
0.30898499488830566,-1.23540805664, 0.490811340332, 9.62229647217, 30.8854961832, -1.16030534351, -0.351145038168
0.31041407585144043,-1.23540805664, 0.490811340332, 9.62229647217, 30.8854961832, -1.16030534351, -0.351145038168
0.3116722106933594,-1.23540805664, 0.490811340332, 9.62229647217, 30.8854961832, -1.16030534351, -0.351145038168
0.3128840923309326,-1.23540805664, 0.490811340332, 9.62229647217, 30.8854961832, -1.16030534351, -0.351145038168
0.31415510177612305,-1.23540805664, 0.490811340332, 9.62229647217, 30.8854961832, -1.16030534351, -0.351145038168
0.3153541088104248,-1.23540805664, 0.490811340332, 9.62229647217, 30.8854961832, -1.16030534351, -0.351145038168
0.3168320655822754,-1.23540805664, 0.490811340332, 9.62229647217, 30.8854961832, -1.16030534351, -0.351145038168
0.31824302673339844,-1.23540805664, 0.490811340332, 9.62229647217, 30.8854961832, -1.16030534351, -0.351145038168
0.3197360038757324,-1.23540805664, 0.490811340332, 9.62229647217, 30.8854961832, -1.16030534351, -0.351145038168
0.32120704650878906,-1.23540805664, 0.490811340332, 9.62229647217, 30.8854961832, -1.16030534351, -0.351145038168
0.3226330280303955,-1.23540805664, 0.490811340332, 9.62229647217, 30.8854961832, -1.16030534351, -0.351145038168
0.32404112815856934,-1.23540805664, 0.490811340332, 9.62229647217, 30.8854961832, -1.16030534351, -0.351145038168
0.32533717155456543,-1.23540805664, 0.490811340332, 9.62229647217, 30.8854961832, -1.16030534351, -0.351145038168
0.3267180919647217,-1.23540805664, 0.490811340332, 9.62229647217, 30.8854961832, -1.16030534351, -0.351145038168
0.3282201290130615,-1.23540805664, 0.490811340332, 9.62229647217, 30.8854961832, -1.16030534351, -0.351145038168
0.32955098152160645,-1.23540805664, 0.490811340332, 9.62229647217, 30.8854961832, -1.16030534351, -0.351145038168
0.3316650390625,-1.23540805664, 0.490811340332, 9.62229647217, 30.8854961832, -1.16030534351, -0.351145038168
0.33301520347595215,-1.23540805664, 0.490811340332, 9.62229647217, 30.8854961832, -1.16030534351, -0.351145038168
0.3343040943145752,-1.23540805664, 0.490811340332, 9.62229647217, 30.8854961832, -1.16030534351, -0.351145038168
0.33712100982666016,-1.23540805664, 0.490811340332, 9.62229647217, 30.8854961832, -1.16030534351, -0.351145038168
0.33907604217529297,-1.23540805664, 0.490811340332, 9.62229647217, 30.8854961832, -1.16030534351, -0.351145038168
0.34120798110961914,-1.23540805664, 0.490811340332, 9.62229647217, 30.8854961832, -1.16030534351, -0.351145038168
0.34355711936950684,-1.23540805664, 0.490811340332, 9.62229647217, 30.8854961832, -1.16030534351, -0.351145038168
0.34589314460754395,-1.23540805664, 0.490811340332, 9.62229647217, 30.8854961832, -1.16030534351, -0.351145038168
0.34803009033203125,-1.23540805664, 0.490811340332, 9.62229647217, 30.8854961832, -1.16030534351, -0.351145038168
0.3506631851196289,-1.23540805664, 0.490811340332, 9.62229647217, 30.8854961832, -1.16030534351, -0.351145038168
0.3521080017089844,-1.23540805664, 0.490811340332, 9.62229647217, 30.8854961832, -1.16030534351, -0.351145038168
0.3546299934387207,-1.23540805664, 0.490811340332, 9.62229647217, 30.8854961832, -1.16030534351, -0.351145038168
0.358288049697876,-1.23540805664, 0.490811340332, 9.62229647217, 30.8854961832, -1.16030534351, -0.351145038168
0.3614461421966553,-1.23540805664, 0.490811340332, 9.62229647217, 30.8854961832, -1.16030534351, -0.351145038168
0.3776090145111084,-1.23540805664, 0.490811340332, 9.62229647217, 30.8854961832, -1.16030534351, -0.351145038168
0.3820760250091553,-1.23540805664, 0.490811340332, 9.62229647217, 30.8854961832, -1.16030534351, -0.351145038168
0.38653111457824707,-1.37906015625, 0.560243188477, 9.64384428711, 30.7328244275, -1.25954198473, -0.351145038168
0.38878297805786133,-1.37906015625, 0.560243188477, 9.64384428711, 30.7328244275, -1.25954198473, -0.351145038168
0.39089298248291016,-1.37906015625, 0.560243188477, 9.64384428711, 30.7328244275, -1.25954198473, -0.351145038168
0.39362406730651855,-1.37906015625, 0.560243188477, 9.64384428711, 30.7328244275, -1.25954198473, -0.351145038168
0.39600300788879395,-1.37906015625, 0.560243188477, 9.64384428711, 30.7328244275, -1.25954198473, -0.351145038168
0.3983790874481201,-1.37906015625, 0.560243188477, 9.64384428711, 30.7328244275, -1.25954198473, -0.351145038168
0.4007260799407959,-1.37906015625, 0.560243188477, 9.64384428711, 30.7328244275, -1.25954198473, -0.351145038168
0.4031960964202881,-1.37906015625, 0.560243188477, 9.64384428711, 30.7328244275, -1.25954198473, -0.351145038168
0.4057650566101074,-1.37906015625, 0.560243188477, 9.64384428711, 30.7328244275, -1.25954198473, -0.351145038168
0.40798020362854004,-1.37906015625, 0.560243188477, 9.64384428711, 30.7328244275, -1.25954198473, -0.351145038168
0.41126418113708496,-1.37906015625, 0.560243188477, 9.64384428711, 30.7328244275, -1.25954198473, -0.351145038168
0.41348910331726074,-1.37906015625, 0.560243188477, 9.64384428711, 30.7328244275, -1.25954198473, -0.351145038168
0.41566014289855957,-1.37906015625, 0.560243188477, 9.64384428711, 30.7328244275, -1.25954198473, -0.351145038168
0.4177839756011963,-1.37906015625, 0.560243188477, 9.64384428711, 30.7328244275, -1.25954198473, -0.351145038168
0.41945314407348633,-1.37906015625, 0.560243188477, 9.64384428711, 30.7328244275, -1.25954198473, -0.351145038168
0.4210929870605469,-1.37906015625, 0.560243188477, 9.64384428711, 30.7328244275, -1.25954198473, -0.351145038168
0.42560601234436035,-1.37906015625, 0.560243188477, 9.64384428711, 30.7328244275, -1.25954198473, -0.351145038168
0.43706202507019043,-1.37906015625, 0.560243188477, 9.64384428711, 30.7328244275, -1.25954198473, -0.351145038168
0.4475710391998291,-1.37906015625, 0.560243188477, 9.64384428711, 30.7328244275, -1.25954198473, -0.351145038168
0.4496440887451172,-1.37906015625, 0.560243188477, 9.64384428711, 30.7328244275, -1.25954198473, -0.351145038168
0.4517481327056885,-1.37906015625, 0.560243188477, 9.64384428711, 30.7328244275, -1.25954198473, -0.351145038168
0.45444416999816895,-1.37906015625, 0.560243188477, 9.64384428711, 30.7328244275, -1.25954198473, -0.351145038168
0.456928014755249,-1.37906015625, 0.560243188477, 9.64384428711, 30.7328244275, -1.25954198473, -0.351145038168
0.4593970775604248,-1.37906015625, 0.560243188477, 9.64384428711, 30.7328244275, -1.25954198473, -0.351145038168
0.4616580009460449,-1.37906015625, 0.560243188477, 9.64384428711, 30.7328244275, -1.25954198473, -0.351145038168
0.46495699882507324,-1.37906015625, 0.560243188477, 9.64384428711, 30.7328244275, -1.25954198473, -0.351145038168
0.4677300453186035,-1.37906015625, 0.560243188477, 9.64384428711, 30.7328244275, -1.25954198473, -0.351145038168
0.473067045211792,-1.30962830811, 0.490811340332, 9.55047042236, 30.7938931298, -1.18320610687, -0.221374045802
0.47495007514953613,-1.30962830811, 0.490811340332, 9.55047042236, 30.7938931298, -1.18320610687, -0.221374045802
0.4775960445404053,-1.30962830811, 0.490811340332, 9.55047042236, 30.7938931298, -1.18320610687, -0.221374045802
0.4797661304473877,-1.30962830811, 0.490811340332, 9.55047042236, 30.7938931298, -1.18320610687, -0.221374045802
0.481701135635376,-1.30962830811, 0.490811340332, 9.55047042236, 30.7938931298, -1.18320610687, -0.221374045802
0.48300909996032715,-1.30962830811, 0.490811340332, 9.55047042236, 30.7938931298, -1.18320610687, -0.221374045802
0.48462510108947754,-1.30962830811, 0.490811340332, 9.55047042236, 30.7938931298, -1.18320610687, -0.221374045802
0.48744702339172363,-1.30962830811, 0.490811340332, 9.55047042236, 30.7938931298, -1.18320610687, -0.221374045802
0.4916341304779053,-1.30962830811, 0.490811340332, 9.55047042236, 30.7938931298, -1.18320610687, -0.221374045802
0.49567413330078125,-1.30962830811, 0.490811340332, 9.55047042236, 30.7938931298, -1.18320610687, -0.221374045802
0.4984300136566162,-1.30962830811, 0.490811340332, 9.55047042236, 30.7938931298, -1.18320610687, -0.221374045802
0.5024881362915039,-1.30962830811, 0.490811340332, 9.55047042236, 30.7938931298, -1.18320610687, -0.221374045802
0.5090219974517822,-1.30962830811, 0.490811340332, 9.55047042236, 30.7938931298, -1.18320610687, -0.221374045802
0.5116260051727295,-1.30962830811, 0.490811340332, 9.55047042236, 30.7938931298, -1.18320610687, -0.221374045802
0.5140280723571777,-1.30962830811, 0.490811340332, 9.55047042236, 30.7938931298, -1.18320610687, -0.221374045802
0.5158901214599609,-1.30962830811, 0.490811340332, 9.55047042236, 30.7938931298, -1.18320610687, -0.221374045802
0.5175931453704834,-1.30962830811, 0.490811340332, 9.55047042236, 30.7938931298, -1.18320610687, -0.221374045802
0.5196690559387207,-1.30962830811, 0.490811340332, 9.55047042236, 30.7938931298, -1.18320610687, -0.221374045802
0.5216870307922363,-1.30962830811, 0.490811340332, 9.55047042236, 30.7938931298, -1.18320610687, -0.221374045802
0.5236411094665527,-1.30962830811, 0.490811340332, 9.55047042236, 30.7938931298, -1.18320610687, -0.221374045802
0.5257751941680908,-1.30962830811, 0.490811340332, 9.55047042236, 30.7938931298, -1.18320610687, -0.221374045802
0.5280170440673828,-1.30962830811, 0.490811340332, 9.55047042236, 30.7938931298, -1.18320610687, -0.221374045802
0.530128002166748,-1.30962830811, 0.490811340332, 9.55047042236, 30.7938931298, -1.18320610687, -0.221374045802
0.5328559875488281,-1.30962830811, 0.490811340332, 9.55047042236, 30.7938931298, -1.18320610687, -0.221374045802
0.5359551906585693,-1.30962830811, 0.490811340332, 9.55047042236, 30.7938931298, -1.18320610687, -0.221374045802
0.5395400524139404,-1.30962830811, 0.490811340332, 9.55047042236, 30.7938931298, -1.18320610687, -0.221374045802
0.5416960716247559,-1.30962830811, 0.490811340332, 9.55047042236, 30.7938931298, -1.18320610687, -0.221374045802
0.5437850952148438,-1.30962830811, 0.490811340332, 9.55047042236, 30.7938931298, -1.18320610687, -0.221374045802
0.545881986618042,-1.30962830811, 0.490811340332, 9.55047042236, 30.7938931298, -1.18320610687, -0.221374045802
0.550724983215332,-1.30962830811, 0.490811340332, 9.55047042236, 30.7938931298, -1.18320610687, -0.221374045802
0.5521080493927002,-1.30962830811, 0.490811340332, 9.55047042236, 30.7938931298, -1.18320610687, -0.221374045802
0.5539360046386719,-1.30962830811, 0.490811340332, 9.55047042236, 30.7938931298, -1.18320610687, -0.221374045802
0.5571770668029785,-1.30962830811, 0.490811340332, 9.55047042236, 30.7938931298, -1.18320610687, -0.221374045802
0.5607490539550781,-1.30962830811, 0.490811340332, 9.55047042236, 30.7938931298, -1.18320610687, -0.221374045802
0.5648691654205322,-1.30962830811, 0.490811340332, 9.55047042236, 30.7938931298, -1.18320610687, -0.221374045802
0.5700922012329102,-1.30962830811, 0.490811340332, 9.55047042236, 30.7938931298, -1.18320610687, -0.221374045802
0.5773870944976807,-1.38624276123, 0.490811340332, 9.60553706055, 30.8473282443, -1.1679389313, -0.12213740458
0.5798461437225342,-1.38624276123, 0.490811340332, 9.60553706055, 30.8473282443, -1.1679389313, -0.12213740458
0.5816671848297119,-1.38624276123, 0.490811340332, 9.60553706055, 30.8473282443, -1.1679389313, -0.12213740458
0.5842561721801758,-1.38624276123, 0.490811340332, 9.60553706055, 30.8473282443, -1.1679389313, -0.12213740458
0.5864620208740234,-1.38624276123, 0.490811340332, 9.60553706055, 30.8473282443, -1.1679389313, -0.12213740458
0.5882141590118408,-1.38624276123, 0.490811340332, 9.60553706055, 30.8473282443, -1.1679389313, -0.12213740458
0.5905971527099609,-1.38624276123, 0.490811340332, 9.60553706055, 30.8473282443, -1.1679389313, -0.12213740458
0.5926480293273926,-1.38624276123, 0.490811340332, 9.60553706055, 30.8473282443, -1.1679389313, -0.12213740458
0.5946691036224365,-1.38624276123, 0.490811340332, 9.60553706055, 30.8473282443, -1.1679389313, -0.12213740458
0.5964200496673584,-1.38624276123, 0.490811340332, 9.60553706055, 30.8473282443, -1.1679389313, -0.12213740458
0.5979092121124268,-1.38624276123, 0.490811340332, 9.60553706055, 30.8473282443, -1.1679389313, -0.12213740458
0.5995440483093262,-1.38624276123, 0.490811340332, 9.60553706055, 30.8473282443, -1.1679389313, -0.12213740458
0.6022400856018066,-1.38624276123, 0.490811340332, 9.60553706055, 30.8473282443, -1.1679389313, -0.12213740458
0.6046249866485596,-1.38624276123, 0.490811340332, 9.60553706055, 30.8473282443, -1.1679389313, -0.12213740458
0.6064331531524658,-1.38624276123, 0.490811340332, 9.60553706055, 30.8473282443, -1.1679389313, -0.12213740458
0.6085081100463867,-1.38624276123, 0.490811340332, 9.60553706055, 30.8473282443, -1.1679389313, -0.12213740458
0.6106460094451904,-1.38624276123, 0.490811340332, 9.60553706055, 30.8473282443, -1.1679389313, -0.12213740458
0.6126902103424072,-1.38624276123, 0.490811340332, 9.60553706055, 30.8473282443, -1.1679389313, -0.12213740458
0.6145939826965332,-1.38624276123, 0.490811340332, 9.60553706055, 30.8473282443, -1.1679389313, -0.12213740458
0.6161191463470459,-1.38624276123, 0.490811340332, 9.60553706055, 30.8473282443, -1.1679389313, -0.12213740458
0.61775803565979,-1.38624276123, 0.490811340332, 9.60553706055, 30.8473282443, -1.1679389313, -0.12213740458
0.6191010475158691,-1.38624276123, 0.490811340332, 9.60553706055, 30.8473282443, -1.1679389313, -0.12213740458
0.6209402084350586,-1.38624276123, 0.490811340332, 9.60553706055, 30.8473282443, -1.1679389313, -0.12213740458
0.6236991882324219,-1.38624276123, 0.490811340332, 9.60553706055, 30.8473282443, -1.1679389313, -0.12213740458
0.6268270015716553,-1.38624276123, 0.490811340332, 9.60553706055, 30.8473282443, -1.1679389313, -0.12213740458
0.6305661201477051,-1.38624276123, 0.490811340332, 9.60553706055, 30.8473282443, -1.1679389313, -0.12213740458
0.6356010437011719,-1.38624276123, 0.490811340332, 9.60553706055, 30.8473282443, -1.1679389313, -0.12213740458
0.6421141624450684,-1.38624276123, 0.490811340332, 9.60553706055, 30.8473282443, -1.1679389313, -0.12213740458
0.6434991359710693,-1.38624276123, 0.490811340332, 9.60553706055, 30.8473282443, -1.1679389313, -0.12213740458
0.6447920799255371,-1.38624276123, 0.490811340332, 9.60553706055, 30.8473282443, -1.1679389313, -0.12213740458
0.6461331844329834,-1.38624276123, 0.490811340332, 9.60553706055, 30.8473282443, -1.1679389313, -0.12213740458
0.6477031707763672,-1.38624276123, 0.490811340332, 9.60553706055, 30.8473282443, -1.1679389313, -0.12213740458
0.6491332054138184,-1.38624276123, 0.490811340332, 9.60553706055, 30.8473282443, -1.1679389313, -0.12213740458
0.650299072265625,-1.38624276123, 0.490811340332, 9.60553706055, 30.8473282443, -1.1679389313, -0.12213740458
0.6514160633087158,-1.38624276123, 0.490811340332, 9.60553706055, 30.8473282443, -1.1679389313, -0.12213740458
0.6527860164642334,-1.38624276123, 0.490811340332, 9.60553706055, 30.8473282443, -1.1679389313, -0.12213740458
0.6541650295257568,-1.38624276123, 0.490811340332, 9.60553706055, 30.8473282443, -1.1679389313, -0.12213740458
0.6555430889129639,-1.38624276123, 0.490811340332, 9.60553706055, 30.8473282443, -1.1679389313, -0.12213740458
0.6569361686706543,-1.38624276123, 0.490811340332, 9.60553706055, 30.8473282443, -1.1679389313, -0.12213740458
0.6583430767059326,-1.38624276123, 0.490811340332, 9.60553706055, 30.8473282443, -1.1679389313, -0.12213740458
0.6596541404724121,-1.38624276123, 0.490811340332, 9.60553706055, 30.8473282443, -1.1679389313, -0.12213740458
0.6612842082977295,-1.38624276123, 0.490811340332, 9.60553706055, 30.8473282443, -1.1679389313, -0.12213740458
0.6626842021942139,-1.38624276123, 0.490811340332, 9.60553706055, 30.8473282443, -1.1679389313, -0.12213740458
0.6639750003814697,-1.38624276123, 0.490811340332, 9.60553706055, 30.8473282443, -1.1679389313, -0.12213740458
0.6655189990997314,-1.38624276123, 0.490811340332, 9.60553706055, 30.8473282443, -1.1679389313, -0.12213740458
0.667011022567749,-1.38624276123, 0.490811340332, 9.60553706055, 30.8473282443, -1.1679389313, -0.12213740458
0.668201208114624,-1.38624276123, 0.490811340332, 9.60553706055, 30.8473282443, -1.1679389313, -0.12213740458
0.669497013092041,-1.38624276123, 0.490811340332, 9.60553706055, 30.8473282443, -1.1679389313, -0.12213740458
0.6724491119384766,-1.38624276123, 0.555454785156, 9.50737479248, 30.7557251908, -1.12213740458, -0.290076335878
0.6747140884399414,-1.38624276123, 0.555454785156, 9.50737479248, 30.7557251908, -1.12213740458, -0.290076335878
0.6774539947509766,-1.38624276123, 0.555454785156, 9.50737479248, 30.7557251908, -1.12213740458, -0.290076335878
0.679656982421875,-1.38624276123, 0.555454785156, 9.50737479248, 30.7557251908, -1.12213740458, -0.290076335878
0.681908130645752,-1.38624276123, 0.555454785156, 9.50737479248, 30.7557251908, -1.12213740458, -0.290076335878
0.6840600967407227,-1.38624276123, 0.555454785156, 9.50737479248, 30.7557251908, -1.12213740458, -0.290076335878
0.686237096786499,-1.38624276123, 0.555454785156, 9.50737479248, 30.7557251908, -1.12213740458, -0.290076335878
0.688431978225708,-1.38624276123, 0.555454785156, 9.50737479248, 30.7557251908, -1.12213740458, -0.290076335878
0.6906821727752686,-1.38624276123, 0.555454785156, 9.50737479248, 30.7557251908, -1.12213740458, -0.290076335878
0.6928801536560059,-1.38624276123, 0.555454785156, 9.50737479248, 30.7557251908, -1.12213740458, -0.290076335878
0.6958670616149902,-1.38624276123, 0.555454785156, 9.50737479248, 30.7557251908, -1.12213740458, -0.290076335878
0.6989321708679199,-1.38624276123, 0.555454785156, 9.50737479248, 30.7557251908, -1.12213740458, -0.290076335878
0.7010049819946289,-1.38624276123, 0.555454785156, 9.50737479248, 30.7557251908, -1.12213740458, -0.290076335878
0.7032630443572998,-1.38624276123, 0.555454785156, 9.50737479248, 30.7557251908, -1.12213740458, -0.290076335878
0.7055180072784424,-1.38624276123, 0.555454785156, 9.50737479248, 30.7557251908, -1.12213740458, -0.290076335878
0.7078771591186523,-1.38624276123, 0.555454785156, 9.50737479248, 30.7557251908, -1.12213740458, -0.290076335878
0.7094180583953857,-1.38624276123, 0.555454785156, 9.50737479248, 30.7557251908, -1.12213740458, -0.290076335878
0.7110481262207031,-1.38624276123, 0.555454785156, 9.50737479248, 30.7557251908, -1.12213740458, -0.290076335878
0.7132341861724854,-1.38624276123, 0.555454785156, 9.50737479248, 30.7557251908, -1.12213740458, -0.290076335878
0.7175672054290771,-1.38624276123, 0.555454785156, 9.50737479248, 30.7557251908, -1.12213740458, -0.290076335878
0.7207901477813721,-1.38624276123, 0.555454785156, 9.50737479248, 30.7557251908, -1.12213740458, -0.290076335878
0.7243661880493164,-1.38624276123, 0.555454785156, 9.50737479248, 30.7557251908, -1.12213740458, -0.290076335878
0.7324399948120117,-1.38624276123, 0.555454785156, 9.50737479248, 30.7557251908, -1.12213740458, -0.290076335878
0.7355132102966309,-1.38624276123, 0.555454785156, 9.50737479248, 30.7557251908, -1.12213740458, -0.290076335878
0.7382831573486328,-1.38624276123, 0.555454785156, 9.50737479248, 30.7557251908, -1.12213740458, -0.290076335878
0.7404170036315918,-1.38624276123, 0.555454785156, 9.50737479248, 30.7557251908, -1.12213740458, -0.290076335878
0.7428112030029297,-1.38624276123, 0.555454785156, 9.50737479248, 30.7557251908, -1.12213740458, -0.290076335878
0.7451419830322266,-1.38624276123, 0.555454785156, 9.50737479248, 30.7557251908, -1.12213740458, -0.290076335878
0.7495310306549072,-1.38624276123, 0.555454785156, 9.50737479248, 30.7557251908, -1.12213740458, -0.290076335878
0.7519710063934326,-1.38624276123, 0.555454785156, 9.50737479248, 30.7557251908, -1.12213740458, -0.290076335878
0.754310131072998,-1.38624276123, 0.555454785156, 9.50737479248, 30.7557251908, -1.12213740458, -0.290076335878
0.7573041915893555,-1.38624276123, 0.555454785156, 9.50737479248, 30.7557251908, -1.12213740458, -0.290076335878
0.7600409984588623,-1.38624276123, 0.555454785156, 9.50737479248, 30.7557251908, -1.12213740458, -0.290076335878
0.7658200263977051,-1.38624276123, 0.555454785156, 9.50737479248, 30.7557251908, -1.12213740458, -0.290076335878
0.7685461044311523,-1.38624276123, 0.555454785156, 9.50737479248, 30.7557251908, -1.12213740458, -0.290076335878
0.7725441455841064,-1.24498486328, 0.509964953613, 9.58877764893, 30.8549618321, -1.36641221374, -0.496183206107
0.7743210792541504,-1.24498486328, 0.509964953613, 9.58877764893, 30.8549618321, -1.36641221374, -0.496183206107
0.7768549919128418,-1.24498486328, 0.509964953613, 9.58877764893, 30.8549618321, -1.36641221374, -0.496183206107
0.7811369895935059,-1.24498486328, 0.509964953613, 9.58877764893, 30.8549618321, -1.36641221374, -0.496183206107
0.7842321395874023,-1.24498486328, 0.509964953613, 9.58877764893, 30.8549618321, -1.36641221374, -0.496183206107
0.7875909805297852,-1.24498486328, 0.509964953613, 9.58877764893, 30.8549618321, -1.36641221374, -0.496183206107
0.7936751842498779,-1.24498486328, 0.509964953613, 9.58877764893, 30.8549618321, -1.36641221374, -0.496183206107
0.7987351417541504,-1.24498486328, 0.509964953613, 9.58877764893, 30.8549618321, -1.36641221374, -0.496183206107
0.8011140823364258,-1.24498486328, 0.509964953613, 9.58877764893, 30.8549618321, -1.36641221374, -0.496183206107
0.8036880493164062,-1.24498486328, 0.509964953613, 9.58877764893, 30.8549618321, -1.36641221374, -0.496183206107
0.8059020042419434,-1.24498486328, 0.509964953613, 9.58877764893, 30.8549618321, -1.36641221374, -0.496183206107
0.8087830543518066,-1.24498486328, 0.509964953613, 9.58877764893, 30.8549618321, -1.36641221374, -0.496183206107
0.8111979961395264,-1.24498486328, 0.509964953613, 9.58877764893, 30.8549618321, -1.36641221374, -0.496183206107
0.8134791851043701,-1.24498486328, 0.509964953613, 9.58877764893, 30.8549618321, -1.36641221374, -0.496183206107
0.8164751529693604,-1.24498486328, 0.509964953613, 9.58877764893, 30.8549618321, -1.36641221374, -0.496183206107
0.8194470405578613,-1.24498486328, 0.509964953613, 9.58877764893, 30.8549618321, -1.36641221374, -0.496183206107
0.8221089839935303,-1.24498486328, 0.509964953613, 9.58877764893, 30.8549618321, -1.36641221374, -0.496183206107
0.824843168258667,-1.24498486328, 0.509964953613, 9.58877764893, 30.8549618321, -1.36641221374, -0.496183206107
0.827660083770752,-1.24498486328, 0.509964953613, 9.58877764893, 30.8549618321, -1.36641221374, -0.496183206107
0.8304870128631592,-1.24498486328, 0.509964953613, 9.58877764893, 30.8549618321, -1.36641221374, -0.496183206107
0.8333621025085449,-1.24498486328, 0.509964953613, 9.58877764893, 30.8549618321, -1.36641221374, -0.496183206107
0.8376240730285645,-1.24498486328, 0.509964953613, 9.58877764893, 30.8549618321, -1.36641221374, -0.496183206107
0.8401110172271729,-1.24498486328, 0.509964953613, 9.58877764893, 30.8549618321, -1.36641221374, -0.496183206107
0.8458201885223389,-1.24498486328, 0.509964953613, 9.58877764893, 30.8549618321, -1.36641221374, -0.496183206107
0.8493881225585938,-1.24498486328, 0.509964953613, 9.58877764893, 30.8549618321, -1.36641221374, -0.496183206107
0.852363109588623,-1.24498486328, 0.509964953613, 9.58877764893, 30.8549618321, -1.36641221374, -0.496183206107
0.8588871955871582,-1.24498486328, 0.509964953613, 9.58877764893, 30.8549618321, -1.36641221374, -0.496183206107
0.8628091812133789,-1.24498486328, 0.509964953613, 9.58877764893, 30.8549618321, -1.36641221374, -0.496183206107
0.8654580116271973,-1.24498486328, 0.509964953613, 9.58877764893, 30.8549618321, -1.36641221374, -0.496183206107
0.868117094039917,-1.24498486328, 0.509964953613, 9.58877764893, 30.8549618321, -1.36641221374, -0.496183206107
0.8704690933227539,-1.24498486328, 0.509964953613, 9.58877764893, 30.8549618321, -1.36641221374, -0.496183206107
0.8750271797180176,-1.40060797119, 0.550666381836, 9.58638344727, 30.8091603053, -1.26717557252, -0.12213740458
0.878364086151123,-1.40060797119, 0.550666381836, 9.58638344727, 30.8091603053, -1.26717557252, -0.12213740458
0.8809890747070312,-1.40060797119, 0.550666381836, 9.58638344727, 30.8091603053, -1.26717557252, -0.12213740458
0.8835470676422119,-1.40060797119, 0.550666381836, 9.58638344727, 30.8091603053, -1.26717557252, -0.12213740458
0.8857409954071045,-1.40060797119, 0.550666381836, 9.58638344727, 30.8091603053, -1.26717557252, -0.12213740458
0.8883349895477295,-1.40060797119, 0.550666381836, 9.58638344727, 30.8091603053, -1.26717557252, -0.12213740458
0.890801191329956,-1.40060797119, 0.550666381836, 9.58638344727, 30.8091603053, -1.26717557252, -0.12213740458
0.893179178237915,-1.40060797119, 0.550666381836, 9.58638344727, 30.8091603053, -1.26717557252, -0.12213740458
0.8963720798492432,-1.40060797119, 0.550666381836, 9.58638344727, 30.8091603053, -1.26717557252, -0.12213740458
0.8993589878082275,-1.40060797119, 0.550666381836, 9.58638344727, 30.8091603053, -1.26717557252, -0.12213740458
0.9016640186309814,-1.40060797119, 0.550666381836, 9.58638344727, 30.8091603053, -1.26717557252, -0.12213740458
0.9030191898345947,-1.40060797119, 0.550666381836, 9.58638344727, 30.8091603053, -1.26717557252, -0.12213740458
0.9054181575775146,-1.40060797119, 0.550666381836, 9.58638344727, 30.8091603053, -1.26717557252, -0.12213740458
0.9097421169281006,-1.40060797119, 0.550666381836, 9.58638344727, 30.8091603053, -1.26717557252, -0.12213740458
0.9125580787658691,-1.40060797119, 0.550666381836, 9.58638344727, 30.8091603053, -1.26717557252, -0.12213740458
0.9159409999847412,-1.40060797119, 0.550666381836, 9.58638344727, 30.8091603053, -1.26717557252, -0.12213740458
0.9202921390533447,-1.40060797119, 0.550666381836, 9.58638344727, 30.8091603053, -1.26717557252, -0.12213740458
0.9275290966033936,-1.40060797119, 0.550666381836, 9.58638344727, 30.8091603053, -1.26717557252, -0.12213740458
0.9304311275482178,-1.40060797119, 0.550666381836, 9.58638344727, 30.8091603053, -1.26717557252, -0.12213740458
0.9329280853271484,-1.40060797119, 0.550666381836, 9.58638344727, 30.8091603053, -1.26717557252, -0.12213740458
0.9378211498260498,-1.40060797119, 0.550666381836, 9.58638344727, 30.8091603053, -1.26717557252, -0.12213740458
0.9417681694030762,-1.40060797119, 0.550666381836, 9.58638344727, 30.8091603053, -1.26717557252, -0.12213740458
0.9467880725860596,-1.40060797119, 0.550666381836, 9.58638344727, 30.8091603053, -1.26717557252, -0.12213740458
0.9492321014404297,-1.40060797119, 0.550666381836, 9.58638344727, 30.8091603053, -1.26717557252, -0.12213740458
0.9514281749725342,-1.40060797119, 0.550666381836, 9.58638344727, 30.8091603053, -1.26717557252, -0.12213740458
0.953794002532959,-1.40060797119, 0.550666381836, 9.58638344727, 30.8091603053, -1.26717557252, -0.12213740458
0.9563682079315186,-1.40060797119, 0.550666381836, 9.58638344727, 30.8091603053, -1.26717557252, -0.12213740458
0.9588620662689209,-1.40060797119, 0.550666381836, 9.58638344727, 30.8091603053, -1.26717557252, -0.12213740458
0.9610941410064697,-1.40060797119, 0.550666381836, 9.58638344727, 30.8091603053, -1.26717557252, -0.12213740458
0.9631750583648682,-1.40060797119, 0.550666381836, 9.58638344727, 30.8091603053, -1.26717557252, -0.12213740458
0.9646689891815186,-1.40060797119, 0.550666381836, 9.58638344727, 30.8091603053, -1.26717557252, -0.12213740458
0.967008113861084,-1.40060797119, 0.550666381836, 9.58638344727, 30.8091603053, -1.26717557252, -0.12213740458
0.969851016998291,-1.40060797119, 0.550666381836, 9.58638344727, 30.8091603053, -1.26717557252, -0.12213740458
0.9751131534576416,-1.30723410645, 0.505176550293, 9.64384428711, 30.8473282443, -1.14503816794, -0.251908396947
0.9794800281524658,-1.30723410645, 0.505176550293, 9.64384428711, 30.8473282443, -1.14503816794, -0.251908396947
0.9857611656188965,-1.30723410645, 0.505176550293, 9.64384428711, 30.8473282443, -1.14503816794, -0.251908396947
0.9903450012207031,-1.30723410645, 0.505176550293, 9.64384428711, 30.8473282443, -1.14503816794, -0.251908396947
0.9939119815826416,-1.30723410645, 0.505176550293, 9.64384428711, 30.8473282443, -1.14503816794, -0.251908396947
0.9968860149383545,-1.30723410645, 0.505176550293, 9.64384428711, 30.8473282443, -1.14503816794, -0.251908396947
0.9991121292114258,-1.30723410645, 0.505176550293, 9.64384428711, 30.8473282443, -1.14503816794, -0.251908396947
1.0013811588287354,-1.30723410645, 0.505176550293, 9.64384428711, 30.8473282443, -1.14503816794, -0.251908396947
1.0044560432434082,-1.30723410645, 0.505176550293, 9.64384428711, 30.8473282443, -1.14503816794, -0.251908396947
1.0073051452636719,-1.30723410645, 0.505176550293, 9.64384428711, 30.8473282443, -1.14503816794, -0.251908396947
1.0093040466308594,-1.30723410645, 0.505176550293, 9.64384428711, 30.8473282443, -1.14503816794, -0.251908396947
1.0115129947662354,-1.30723410645, 0.505176550293, 9.64384428711, 30.8473282443, -1.14503816794, -0.251908396947
1.0142509937286377,-1.30723410645, 0.505176550293, 9.64384428711, 30.8473282443, -1.14503816794, -0.251908396947
1.016740083694458,-1.30723410645, 0.505176550293, 9.64384428711, 30.8473282443, -1.14503816794, -0.251908396947
1.018963098526001,-1.30723410645, 0.505176550293, 9.64384428711, 30.8473282443, -1.14503816794, -0.251908396947
1.0214531421661377,-1.30723410645, 0.505176550293, 9.64384428711, 30.8473282443, -1.14503816794, -0.251908396947
1.0242671966552734,-1.30723410645, 0.505176550293, 9.64384428711, 30.8473282443, -1.14503816794, -0.251908396947
1.0267870426177979,-1.30723410645, 0.505176550293, 9.64384428711, 30.8473282443, -1.14503816794, -0.251908396947
1.0283660888671875,-1.30723410645, 0.505176550293, 9.64384428711, 30.8473282443, -1.14503816794, -0.251908396947
1.0309782028198242,-1.30723410645, 0.505176550293, 9.64384428711, 30.8473282443, -1.14503816794, -0.251908396947
1.0344820022583008,-1.30723410645, 0.505176550293, 9.64384428711, 30.8473282443, -1.14503816794, -0.251908396947
1.03981614112854,-1.30723410645, 0.505176550293, 9.64384428711, 30.8473282443, -1.14503816794, -0.251908396947
1.0453951358795166,-1.30723410645, 0.505176550293, 9.64384428711, 30.8473282443, -1.14503816794, -0.251908396947
1.055083990097046,-1.30723410645, 0.505176550293, 9.64384428711, 30.8473282443, -1.14503816794, -0.251908396947
1.0579030513763428,-1.30723410645, 0.505176550293, 9.64384428711, 30.8473282443, -1.14503816794, -0.251908396947
1.0605010986328125,-1.30723410645, 0.505176550293, 9.64384428711, 30.8473282443, -1.14503816794, -0.251908396947
1.0627269744873047,-1.30723410645, 0.505176550293, 9.64384428711, 30.8473282443, -1.14503816794, -0.251908396947
1.0653760433197021,-1.30723410645, 0.505176550293, 9.64384428711, 30.8473282443, -1.14503816794, -0.251908396947
1.0678210258483887,-1.30723410645, 0.505176550293, 9.64384428711, 30.8473282443, -1.14503816794, -0.251908396947
1.06998610496521,-1.30723410645, 0.505176550293, 9.64384428711, 30.8473282443, -1.14503816794, -0.251908396947
1.074855089187622,-1.36230074463, 0.529118566895, 9.60074865723, 30.7557251908, -1.15267175573, -0.229007633588
1.0782082080841064,-1.36230074463, 0.529118566895, 9.60074865723, 30.7557251908, -1.15267175573, -0.229007633588
1.080632209777832,-1.36230074463, 0.529118566895, 9.60074865723, 30.7557251908, -1.15267175573, -0.229007633588
1.0832431316375732,-1.36230074463, 0.529118566895, 9.60074865723, 30.7557251908, -1.15267175573, -0.229007633588
1.0854301452636719,-1.36230074463, 0.529118566895, 9.60074865723, 30.7557251908, -1.15267175573, -0.229007633588
1.0886521339416504,-1.36230074463, 0.529118566895, 9.60074865723, 30.7557251908, -1.15267175573, -0.229007633588
1.0901310443878174,-1.36230074463, 0.529118566895, 9.60074865723, 30.7557251908, -1.15267175573, -0.229007633588
1.0917391777038574,-1.36230074463, 0.529118566895, 9.60074865723, 30.7557251908, -1.15267175573, -0.229007633588
1.0945930480957031,-1.36230074463, 0.529118566895, 9.60074865723, 30.7557251908, -1.15267175573, -0.229007633588
1.0998899936676025,-1.36230074463, 0.529118566895, 9.60074865723, 30.7557251908, -1.15267175573, -0.229007633588
1.1043059825897217,-1.36230074463, 0.529118566895, 9.60074865723, 30.7557251908, -1.15267175573, -0.229007633588
1.111119031906128,-1.36230074463, 0.529118566895, 9.60074865723, 30.7557251908, -1.15267175573, -0.229007633588
1.11588716506958,-1.36230074463, 0.529118566895, 9.60074865723, 30.7557251908, -1.15267175573, -0.229007633588
1.1190721988677979,-1.36230074463, 0.529118566895, 9.60074865723, 30.7557251908, -1.15267175573, -0.229007633588
1.1218411922454834,-1.36230074463, 0.529118566895, 9.60074865723, 30.7557251908, -1.15267175573, -0.229007633588
1.1251051425933838,-1.36230074463, 0.529118566895, 9.60074865723, 30.7557251908, -1.15267175573, -0.229007633588
1.1456491947174072,-1.36230074463, 0.529118566895, 9.60074865723, 30.7557251908, -1.15267175573, -0.229007633588
1.148773193359375,-1.36230074463, 0.529118566895, 9.60074865723, 30.7557251908, -1.15267175573, -0.229007633588
1.1516849994659424,-1.36230074463, 0.529118566895, 9.60074865723, 30.7557251908, -1.15267175573, -0.229007633588
1.1557860374450684,-1.36230074463, 0.529118566895, 9.60074865723, 30.7557251908, -1.15267175573, -0.229007633588
1.1575992107391357,-1.36230074463, 0.529118566895, 9.60074865723, 30.7557251908, -1.15267175573, -0.229007633588
1.161417007446289,-1.36230074463, 0.529118566895, 9.60074865723, 30.7557251908, -1.15267175573, -0.229007633588
1.1653361320495605,-1.36230074463, 0.529118566895, 9.60074865723, 30.7557251908, -1.15267175573, -0.229007633588
1.169236183166504,-1.36230074463, 0.529118566895, 9.60074865723, 30.7557251908, -1.15267175573, -0.229007633588
1.1749670505523682,-1.36230074463, 0.529118566895, 9.60074865723, 30.7557251908, -1.15267175573, -0.229007633588
1.1836771965026855,-1.40539637451, 0.538695373535, 9.74200655518, 30.6641221374, -1.40458015267, -0.190839694656
1.1858181953430176,-1.40539637451, 0.538695373535, 9.74200655518, 30.6641221374, -1.40458015267, -0.190839694656
1.1884400844573975,-1.40539637451, 0.538695373535, 9.74200655518, 30.6641221374, -1.40458015267, -0.190839694656
1.1911771297454834,-1.40539637451, 0.538695373535, 9.74200655518, 30.6641221374, -1.40458015267, -0.190839694656
1.1933841705322266,-1.40539637451, 0.538695373535, 9.74200655518, 30.6641221374, -1.40458015267, -0.190839694656
1.1955289840698242,-1.40539637451, 0.538695373535, 9.74200655518, 30.6641221374, -1.40458015267, -0.190839694656
1.1984150409698486,-1.40539637451, 0.538695373535, 9.74200655518, 30.6641221374, -1.40458015267, -0.190839694656
1.2010691165924072,-1.40539637451, 0.538695373535, 9.74200655518, 30.6641221374, -1.40458015267, -0.190839694656
1.2036941051483154,-1.40539637451, 0.538695373535, 9.74200655518, 30.6641221374, -1.40458015267, -0.190839694656
1.206144094467163,-1.40539637451, 0.538695373535, 9.74200655518, 30.6641221374, -1.40458015267, -0.190839694656
1.2090561389923096,-1.40539637451, 0.538695373535, 9.74200655518, 30.6641221374, -1.40458015267, -0.190839694656
1.2116081714630127,-1.40539637451, 0.538695373535, 9.74200655518, 30.6641221374, -1.40458015267, -0.190839694656
1.214353084564209,-1.40539637451, 0.538695373535, 9.74200655518, 30.6641221374, -1.40458015267, -0.190839694656
1.2179641723632812,-1.40539637451, 0.538695373535, 9.74200655518, 30.6641221374, -1.40458015267, -0.190839694656
1.2203631401062012,-1.40539637451, 0.538695373535, 9.74200655518, 30.6641221374, -1.40458015267, -0.190839694656
1.22188401222229,-1.40539637451, 0.538695373535, 9.74200655518, 30.6641221374, -1.40458015267, -0.190839694656
1.2236320972442627,-1.40539637451, 0.538695373535, 9.74200655518, 30.6641221374, -1.40458015267, -0.190839694656
1.2271881103515625,-1.40539637451, 0.538695373535, 9.74200655518, 30.6641221374, -1.40458015267, -0.190839694656
1.230924129486084,-1.40539637451, 0.538695373535, 9.74200655518, 30.6641221374, -1.40458015267, -0.190839694656
1.234011173248291,-1.40539637451, 0.538695373535, 9.74200655518, 30.6641221374, -1.40458015267, -0.190839694656
1.2403690814971924,-1.40539637451, 0.538695373535, 9.74200655518, 30.6641221374, -1.40458015267, -0.190839694656
1.245422124862671,-1.40539637451, 0.538695373535, 9.74200655518, 30.6641221374, -1.40458015267, -0.190839694656
1.2510759830474854,-1.40539637451, 0.538695373535, 9.74200655518, 30.6641221374, -1.40458015267, -0.190839694656
1.2541530132293701,-1.40539637451, 0.538695373535, 9.74200655518, 30.6641221374, -1.40458015267, -0.190839694656
1.2578840255737305,-1.40539637451, 0.538695373535, 9.74200655518, 30.6641221374, -1.40458015267, -0.190839694656
1.2610931396484375,-1.40539637451, 0.538695373535, 9.74200655518, 30.6641221374, -1.40458015267, -0.190839694656
1.2644131183624268,-1.40539637451, 0.538695373535, 9.74200655518, 30.6641221374, -1.40458015267, -0.190839694656
1.2672061920166016,-1.40539637451, 0.538695373535, 9.74200655518, 30.6641221374, -1.40458015267, -0.190839694656
1.272387981414795,-1.40539637451, 0.538695373535, 9.74200655518, 30.6641221374, -1.40458015267, -0.190839694656
1.2749052047729492,-1.40539637451, 0.538695373535, 9.74200655518, 30.6641221374, -1.40458015267, -0.190839694656
1.2790460586547852,-1.40539637451, 0.538695373535, 9.74200655518, 30.6641221374, -1.40458015267, -0.190839694656
1.286163091659546,-1.45088620605, 0.60812722168, 9.560047229, 31.0229007634, -0.984732824427, -0.290076335878
1.289297103881836,-1.45088620605, 0.60812722168, 9.560047229, 31.0229007634, -0.984732824427, -0.290076335878
1.2933061122894287,-1.45088620605, 0.60812722168, 9.560047229, 31.0229007634, -0.984732824427, -0.290076335878
1.2972700595855713,-1.45088620605, 0.60812722168, 9.560047229, 31.0229007634, -0.984732824427, -0.290076335878
1.30253005027771,-1.45088620605, 0.60812722168, 9.560047229, 31.0229007634, -0.984732824427, -0.290076335878
1.3086190223693848,-1.45088620605, 0.60812722168, 9.560047229, 31.0229007634, -0.984732824427, -0.290076335878
1.3117179870605469,-1.45088620605, 0.60812722168, 9.560047229, 31.0229007634, -0.984732824427, -0.290076335878
1.3148009777069092,-1.45088620605, 0.60812722168, 9.560047229, 31.0229007634, -0.984732824427, -0.290076335878
1.317507028579712,-1.45088620605, 0.60812722168, 9.560047229, 31.0229007634, -0.984732824427, -0.290076335878
1.319850206375122,-1.45088620605, 0.60812722168, 9.560047229, 31.0229007634, -0.984732824427, -0.290076335878
1.3244102001190186,-1.45088620605, 0.60812722168, 9.560047229, 31.0229007634, -0.984732824427, -0.290076335878
1.3291940689086914,-1.45088620605, 0.60812722168, 9.560047229, 31.0229007634, -0.984732824427, -0.290076335878
1.3343579769134521,-1.45088620605, 0.60812722168, 9.560047229, 31.0229007634, -0.984732824427, -0.290076335878
1.3403611183166504,-1.45088620605, 0.60812722168, 9.560047229, 31.0229007634, -0.984732824427, -0.290076335878
1.3427040576934814,-1.45088620605, 0.60812722168, 9.560047229, 31.0229007634, -0.984732824427, -0.290076335878
1.3458571434020996,-1.45088620605, 0.60812722168, 9.560047229, 31.0229007634, -0.984732824427, -0.290076335878
1.350275993347168,-1.45088620605, 0.60812722168, 9.560047229, 31.0229007634, -0.984732824427, -0.290076335878
1.3514671325683594,-1.45088620605, 0.60812722168, 9.560047229, 31.0229007634, -0.984732824427, -0.290076335878
1.3529200553894043,-1.45088620605, 0.60812722168, 9.560047229, 31.0229007634, -0.984732824427, -0.290076335878
1.3543620109558105,-1.45088620605, 0.60812722168, 9.560047229, 31.0229007634, -0.984732824427, -0.290076335878
1.355924129486084,-1.45088620605, 0.60812722168, 9.560047229, 31.0229007634, -0.984732824427, -0.290076335878
1.3576281070709229,-1.45088620605, 0.60812722168, 9.560047229, 31.0229007634, -0.984732824427, -0.290076335878
1.3590810298919678,-1.45088620605, 0.60812722168, 9.560047229, 31.0229007634, -0.984732824427, -0.290076335878
1.360469102859497,-1.45088620605, 0.60812722168, 9.560047229, 31.0229007634, -0.984732824427, -0.290076335878
1.3626911640167236,-1.45088620605, 0.60812722168, 9.560047229, 31.0229007634, -0.984732824427, -0.290076335878
1.3649580478668213,-1.45088620605, 0.60812722168, 9.560047229, 31.0229007634, -0.984732824427, -0.290076335878
1.3674571514129639,-1.45088620605, 0.60812722168, 9.560047229, 31.0229007634, -0.984732824427, -0.290076335878
1.3724961280822754,-1.24259066162, 0.526724365234, 9.5361052124, 30.9541984733, -1.09160305344, -0.274809160305
1.3742361068725586,-1.24259066162, 0.526724365234, 9.5361052124, 30.9541984733, -1.09160305344, -0.274809160305
1.3756861686706543,-1.24259066162, 0.526724365234, 9.5361052124, 30.9541984733, -1.09160305344, -0.274809160305
1.3772571086883545,-1.24259066162, 0.526724365234, 9.5361052124, 30.9541984733, -1.09160305344, -0.274809160305
1.3786821365356445,-1.24259066162, 0.526724365234, 9.5361052124, 30.9541984733, -1.09160305344, -0.274809160305
1.3801240921020508,-1.24259066162, 0.526724365234, 9.5361052124, 30.9541984733, -1.09160305344, -0.274809160305
1.3820970058441162,-1.24259066162, 0.526724365234, 9.5361052124, 30.9541984733, -1.09160305344, -0.274809160305
1.3837950229644775,-1.24259066162, 0.526724365234, 9.5361052124, 30.9541984733, -1.09160305344, -0.274809160305
1.3876571655273438,-1.24259066162, 0.526724365234, 9.5361052124, 30.9541984733, -1.09160305344, -0.274809160305
1.3915820121765137,-1.24259066162, 0.526724365234, 9.5361052124, 30.9541984733, -1.09160305344, -0.274809160305
1.3956530094146729,-1.24259066162, 0.526724365234, 9.5361052124, 30.9541984733, -1.09160305344, -0.274809160305
1.4046621322631836,-1.24259066162, 0.526724365234, 9.5361052124, 30.9541984733, -1.09160305344, -0.274809160305
1.40779709815979,-1.24259066162, 0.526724365234, 9.5361052124, 30.9541984733, -1.09160305344, -0.274809160305
1.4108831882476807,-1.24259066162, 0.526724365234, 9.5361052124, 30.9541984733, -1.09160305344, -0.274809160305
1.4134020805358887,-1.24259066162, 0.526724365234, 9.5361052124, 30.9541984733, -1.09160305344, -0.274809160305
1.4159350395202637,-1.24259066162, 0.526724365234, 9.5361052124, 30.9541984733, -1.09160305344, -0.274809160305
1.4186551570892334,-1.24259066162, 0.526724365234, 9.5361052124, 30.9541984733, -1.09160305344, -0.274809160305
1.4227640628814697,-1.24259066162, 0.526724365234, 9.5361052124, 30.9541984733, -1.09160305344, -0.274809160305
1.4271371364593506,-1.24259066162, 0.526724365234, 9.5361052124, 30.9541984733, -1.09160305344, -0.274809160305
1.4358420372009277,-1.24259066162, 0.526724365234, 9.5361052124, 30.9541984733, -1.09160305344, -0.274809160305
1.4431700706481934,-1.24259066162, 0.526724365234, 9.5361052124, 30.9541984733, -1.09160305344, -0.274809160305
1.449836015701294,-1.24259066162, 0.526724365234, 9.5361052124, 30.9541984733, -1.09160305344, -0.274809160305
1.4534211158752441,-1.24259066162, 0.526724365234, 9.5361052124, 30.9541984733, -1.09160305344, -0.274809160305
1.45725417137146,-1.24259066162, 0.526724365234, 9.5361052124, 30.9541984733, -1.09160305344, -0.274809160305
1.466947078704834,-1.24259066162, 0.526724365234, 9.5361052124, 30.9541984733, -1.09160305344, -0.274809160305
1.4743640422821045,-1.26653267822, 0.586579406738, 9.59596025391, 30.9160305344, -1.15267175573, -0.198473282443
1.4772582054138184,-1.26653267822, 0.586579406738, 9.59596025391, 30.9160305344, -1.15267175573, -0.198473282443
1.479828119277954,-1.26653267822, 0.586579406738, 9.59596025391, 30.9160305344, -1.15267175573, -0.198473282443
1.4833290576934814,-1.26653267822, 0.586579406738, 9.59596025391, 30.9160305344, -1.15267175573, -0.198473282443
1.4858651161193848,-1.26653267822, 0.586579406738, 9.59596025391, 30.9160305344, -1.15267175573, -0.198473282443
1.4888269901275635,-1.26653267822, 0.586579406738, 9.59596025391, 30.9160305344, -1.15267175573, -0.198473282443
1.492110013961792,-1.26653267822, 0.586579406738, 9.59596025391, 30.9160305344, -1.15267175573, -0.198473282443
1.4947741031646729,-1.26653267822, 0.586579406738, 9.59596025391, 30.9160305344, -1.15267175573, -0.198473282443
1.497920036315918,-1.26653267822, 0.586579406738, 9.59596025391, 30.9160305344, -1.15267175573, -0.198473282443
1.5007190704345703,-1.26653267822, 0.586579406738, 9.59596025391, 30.9160305344, -1.15267175573, -0.198473282443
1.5036160945892334,-1.26653267822, 0.586579406738, 9.59596025391, 30.9160305344, -1.15267175573, -0.198473282443
1.506465196609497,-1.26653267822, 0.586579406738, 9.59596025391, 30.9160305344, -1.15267175573, -0.198473282443
1.508432149887085,-1.26653267822, 0.586579406738, 9.59596025391, 30.9160305344, -1.15267175573, -0.198473282443
1.5120410919189453,-1.26653267822, 0.586579406738, 9.59596025391, 30.9160305344, -1.15267175573, -0.198473282443
1.5163071155548096,-1.26653267822, 0.586579406738, 9.59596025391, 30.9160305344, -1.15267175573, -0.198473282443
1.520076036453247,-1.26653267822, 0.586579406738, 9.59596025391, 30.9160305344, -1.15267175573, -0.198473282443
1.5314431190490723,-1.26653267822, 0.586579406738, 9.59596025391, 30.9160305344, -1.15267175573, -0.198473282443
1.5375092029571533,-1.26653267822, 0.586579406738, 9.59596025391, 30.9160305344, -1.15267175573, -0.198473282443
1.5433390140533447,-1.26653267822, 0.586579406738, 9.59596025391, 30.9160305344, -1.15267175573, -0.198473282443
1.54581618309021,-1.26653267822, 0.586579406738, 9.59596025391, 30.9160305344, -1.15267175573, -0.198473282443
1.5503261089324951,-1.26653267822, 0.586579406738, 9.59596025391, 30.9160305344, -1.15267175573, -0.198473282443
1.5576050281524658,-1.26653267822, 0.586579406738, 9.59596025391, 30.9160305344, -1.15267175573, -0.198473282443
1.5610840320587158,-1.26653267822, 0.586579406738, 9.59596025391, 30.9160305344, -1.15267175573, -0.198473282443
1.5677180290222168,-1.26653267822, 0.586579406738, 9.59596025391, 30.9160305344, -1.15267175573, -0.198473282443
1.5778000354766846,-1.37906015625, 0.560243188477, 9.79707319336, 31.1526717557, -1.27480916031, -0.160305343511
1.5825810432434082,-1.37906015625, 0.560243188477, 9.79707319336, 31.1526717557, -1.27480916031, -0.160305343511
1.588881015777588,-1.37906015625, 0.560243188477, 9.79707319336, 31.1526717557, -1.27480916031, -0.160305343511
1.5949361324310303,-1.37906015625, 0.560243188477, 9.79707319336, 31.1526717557, -1.27480916031, -0.160305343511
1.5978610515594482,-1.37906015625, 0.560243188477, 9.79707319336, 31.1526717557, -1.27480916031, -0.160305343511
1.6010570526123047,-1.37906015625, 0.560243188477, 9.79707319336, 31.1526717557, -1.27480916031, -0.160305343511
1.6038072109222412,-1.37906015625, 0.560243188477, 9.79707319336, 31.1526717557, -1.27480916031, -0.160305343511
1.6067800521850586,-1.37906015625, 0.560243188477, 9.79707319336, 31.1526717557, -1.27480916031, -0.160305343511
1.6102991104125977,-1.37906015625, 0.560243188477, 9.79707319336, 31.1526717557, -1.27480916031, -0.160305343511
1.6134681701660156,-1.37906015625, 0.560243188477, 9.79707319336, 31.1526717557, -1.27480916031, -0.160305343511
1.6172480583190918,-1.37906015625, 0.560243188477, 9.79707319336, 31.1526717557, -1.27480916031, -0.160305343511
1.6204590797424316,-1.37906015625, 0.560243188477, 9.79707319336, 31.1526717557, -1.27480916031, -0.160305343511
1.626798152923584,-1.37906015625, 0.560243188477, 9.79707319336, 31.1526717557, -1.27480916031, -0.160305343511
1.635986089706421,-1.37906015625, 0.560243188477, 9.79707319336, 31.1526717557, -1.27480916031, -0.160305343511
1.6449999809265137,-1.37906015625, 0.560243188477, 9.79707319336, 31.1526717557, -1.27480916031, -0.160305343511
1.6505210399627686,-1.37906015625, 0.560243188477, 9.79707319336, 31.1526717557, -1.27480916031, -0.160305343511
1.660689115524292,-1.37906015625, 0.560243188477, 9.79707319336, 31.1526717557, -1.27480916031, -0.160305343511
1.6635301113128662,-1.37906015625, 0.560243188477, 9.79707319336, 31.1526717557, -1.27480916031, -0.160305343511
1.666661024093628,-1.37906015625, 0.560243188477, 9.79707319336, 31.1526717557, -1.27480916031, -0.160305343511
1.6694910526275635,-1.37906015625, 0.560243188477, 9.79707319336, 31.1526717557, -1.27480916031, -0.160305343511
1.6775619983673096,-1.40060797119, 0.512359155273, 9.61271966553, 30.9236641221, -1.04580152672, -0.106870229008
1.683035135269165,-1.40060797119, 0.512359155273, 9.61271966553, 30.9236641221, -1.04580152672, -0.106870229008
1.6857810020446777,-1.40060797119, 0.512359155273, 9.61271966553, 30.9236641221, -1.04580152672, -0.106870229008
1.6906712055206299,-1.40060797119, 0.512359155273, 9.61271966553, 30.9236641221, -1.04580152672, -0.106870229008
1.6937720775604248,-1.40060797119, 0.512359155273, 9.61271966553, 30.9236641221, -1.04580152672, -0.106870229008
1.6955351829528809,-1.40060797119, 0.512359155273, 9.61271966553, 30.9236641221, -1.04580152672, -0.106870229008
1.7004971504211426,-1.40060797119, 0.512359155273, 9.61271966553, 30.9236641221, -1.04580152672, -0.106870229008
1.7035880088806152,-1.40060797119, 0.512359155273, 9.61271966553, 30.9236641221, -1.04580152672, -0.106870229008
1.7077441215515137,-1.40060797119, 0.512359155273, 9.61271966553, 30.9236641221, -1.04580152672, -0.106870229008
1.7146050930023193,-1.40060797119, 0.512359155273, 9.61271966553, 30.9236641221, -1.04580152672, -0.106870229008
1.7191011905670166,-1.40060797119, 0.512359155273, 9.61271966553, 30.9236641221, -1.04580152672, -0.106870229008
1.7231171131134033,-1.40060797119, 0.512359155273, 9.61271966553, 30.9236641221, -1.04580152672, -0.106870229008
1.7275559902191162,-1.40060797119, 0.512359155273, 9.61271966553, 30.9236641221, -1.04580152672, -0.106870229008
1.7382290363311768,-1.40060797119, 0.512359155273, 9.61271966553, 30.9236641221, -1.04580152672, -0.106870229008
1.7480731010437012,-1.40060797119, 0.512359155273, 9.61271966553, 30.9236641221, -1.04580152672, -0.106870229008
1.751682996749878,-1.40060797119, 0.512359155273, 9.61271966553, 30.9236641221, -1.04580152672, -0.106870229008
1.754587173461914,-1.40060797119, 0.512359155273, 9.61271966553, 30.9236641221, -1.04580152672, -0.106870229008
1.7574121952056885,-1.40060797119, 0.512359155273, 9.61271966553, 30.9236641221, -1.04580152672, -0.106870229008
1.7594120502471924,-1.40060797119, 0.512359155273, 9.61271966553, 30.9236641221, -1.04580152672, -0.106870229008
1.7632911205291748,-1.40060797119, 0.512359155273, 9.61271966553, 30.9236641221, -1.04580152672, -0.106870229008
1.7676889896392822,-1.40060797119, 0.512359155273, 9.61271966553, 30.9236641221, -1.04580152672, -0.106870229008
1.7758641242980957,-1.51792385254, 0.533906970215, 9.62708487549, 31.0381679389, -1.08396946565, -0.0610687022901
1.789811134338379,-1.51792385254, 0.533906970215, 9.62708487549, 31.0381679389, -1.08396946565, -0.0610687022901
1.7922511100769043,-1.51792385254, 0.533906970215, 9.62708487549, 31.0381679389, -1.08396946565, -0.0610687022901
1.7948501110076904,-1.51792385254, 0.533906970215, 9.62708487549, 31.0381679389, -1.08396946565, -0.0610687022901
1.79951810836792,-1.51792385254, 0.533906970215, 9.62708487549, 31.0381679389, -1.08396946565, -0.0610687022901
1.8021771907806396,-1.51792385254, 0.533906970215, 9.62708487549, 31.0381679389, -1.08396946565, -0.0610687022901
1.805049180984497,-1.51792385254, 0.533906970215, 9.62708487549, 31.0381679389, -1.08396946565, -0.0610687022901
1.8079850673675537,-1.51792385254, 0.533906970215, 9.62708487549, 31.0381679389, -1.08396946565, -0.0610687022901
1.811554193496704,-1.51792385254, 0.533906970215, 9.62708487549, 31.0381679389, -1.08396946565, -0.0610687022901
1.8143370151519775,-1.51792385254, 0.533906970215, 9.62708487549, 31.0381679389, -1.08396946565, -0.0610687022901
1.816890001296997,-1.51792385254, 0.533906970215, 9.62708487549, 31.0381679389, -1.08396946565, -0.0610687022901
1.8185820579528809,-1.51792385254, 0.533906970215, 9.62708487549, 31.0381679389, -1.08396946565, -0.0610687022901
1.8215391635894775,-1.51792385254, 0.533906970215, 9.62708487549, 31.0381679389, -1.08396946565, -0.0610687022901
1.8258640766143799,-1.51792385254, 0.533906970215, 9.62708487549, 31.0381679389, -1.08396946565, -0.0610687022901
1.8304941654205322,-1.51792385254, 0.533906970215, 9.62708487549, 31.0381679389, -1.08396946565, -0.0610687022901
1.8366541862487793,-1.51792385254, 0.533906970215, 9.62708487549, 31.0381679389, -1.08396946565, -0.0610687022901
1.8415281772613525,-1.51792385254, 0.533906970215, 9.62708487549, 31.0381679389, -1.08396946565, -0.0610687022901
1.8491630554199219,-1.51792385254, 0.533906970215, 9.62708487549, 31.0381679389, -1.08396946565, -0.0610687022901
1.851722002029419,-1.51792385254, 0.533906970215, 9.62708487549, 31.0381679389, -1.08396946565, -0.0610687022901
1.8541810512542725,-1.51792385254, 0.533906970215, 9.62708487549, 31.0381679389, -1.08396946565, -0.0610687022901
1.8584489822387695,-1.51792385254, 0.533906970215, 9.62708487549, 31.0381679389, -1.08396946565, -0.0610687022901
1.8792669773101807,-1.33835872803, 0.545877978516, 9.58877764893, 30.8015267176, -1.19847328244, -0.450381679389
1.8844091892242432,-1.33835872803, 0.545877978516, 9.58877764893, 30.8015267176, -1.19847328244, -0.450381679389
1.8918230533599854,-1.33835872803, 0.545877978516, 9.58877764893, 30.8015267176, -1.19847328244, -0.450381679389
1.9044160842895508,-1.33835872803, 0.545877978516, 9.58877764893, 30.8015267176, -1.19847328244, -0.450381679389
1.9099040031433105,-1.33835872803, 0.545877978516, 9.58877764893, 30.8015267176, -1.19847328244, -0.450381679389
1.9131510257720947,-1.33835872803, 0.545877978516, 9.58877764893, 30.8015267176, -1.19847328244, -0.450381679389
1.9159090518951416,-1.33835872803, 0.545877978516, 9.58877764893, 30.8015267176, -1.19847328244, -0.450381679389
1.9205729961395264,-1.33835872803, 0.545877978516, 9.58877764893, 30.8015267176, -1.19847328244, -0.450381679389
1.9249529838562012,-1.33835872803, 0.545877978516, 9.58877764893, 30.8015267176, -1.19847328244, -0.450381679389
1.929807186126709,-1.33835872803, 0.545877978516, 9.58877764893, 30.8015267176, -1.19847328244, -0.450381679389
1.932591199874878,-1.33835872803, 0.545877978516, 9.58877764893, 30.8015267176, -1.19847328244, -0.450381679389
1.935148000717163,-1.33835872803, 0.545877978516, 9.58877764893, 30.8015267176, -1.19847328244, -0.450381679389
1.9409091472625732,-1.33835872803, 0.545877978516, 9.58877764893, 30.8015267176, -1.19847328244, -0.450381679389
1.9532461166381836,-1.33835872803, 0.545877978516, 9.58877764893, 30.8015267176, -1.19847328244, -0.450381679389
1.9629981517791748,-1.33835872803, 0.545877978516, 9.58877764893, 30.8015267176, -1.19847328244, -0.450381679389
1.9650771617889404,-1.33835872803, 0.545877978516, 9.58877764893, 30.8015267176, -1.19847328244, -0.450381679389
1.9671611785888672,-1.33835872803, 0.545877978516, 9.58877764893, 30.8015267176, -1.19847328244, -0.450381679389
1.968630075454712,-1.33835872803, 0.545877978516, 9.58877764893, 30.8015267176, -1.19847328244, -0.450381679389
1.9728670120239258,-1.34314713135, 0.529118566895, 9.59835445557, 31.0534351145, -1.01526717557, -0.30534351145
1.9752800464630127,-1.34314713135, 0.529118566895, 9.59835445557, 31.0534351145, -1.01526717557, -0.30534351145
1.9769830703735352,-1.34314713135, 0.529118566895, 9.59835445557, 31.0534351145, -1.01526717557, -0.30534351145
1.9784331321716309,-1.34314713135, 0.529118566895, 9.59835445557, 31.0534351145, -1.01526717557, -0.30534351145
1.981260061264038,-1.34314713135, 0.529118566895, 9.59835445557, 31.0534351145, -1.01526717557, -0.30534351145
1.982748031616211,-1.34314713135, 0.529118566895, 9.59835445557, 31.0534351145, -1.01526717557, -0.30534351145
1.9840950965881348,-1.34314713135, 0.529118566895, 9.59835445557, 31.0534351145, -1.01526717557, -0.30534351145
1.9867630004882812,-1.34314713135, 0.529118566895, 9.59835445557, 31.0534351145, -1.01526717557, -0.30534351145
1.9883780479431152,-1.34314713135, 0.529118566895, 9.59835445557, 31.0534351145, -1.01526717557, -0.30534351145
1.9897840023040771,-1.34314713135, 0.529118566895, 9.59835445557, 31.0534351145, -1.01526717557, -0.30534351145
1.9912362098693848,-1.34314713135, 0.529118566895, 9.59835445557, 31.0534351145, -1.01526717557, -0.30534351145
1.9927291870117188,-1.34314713135, 0.529118566895, 9.59835445557, 31.0534351145, -1.01526717557, -0.30534351145
1.9941000938415527,-1.34314713135, 0.529118566895, 9.59835445557, 31.0534351145, -1.01526717557, -0.30534351145
1.9956910610198975,-1.34314713135, 0.529118566895, 9.59835445557, 31.0534351145, -1.01526717557, -0.30534351145
2.0008699893951416,-1.34314713135, 0.529118566895, 9.59835445557, 31.0534351145, -1.01526717557, -0.30534351145
2.003648042678833,-1.34314713135, 0.529118566895, 9.59835445557, 31.0534351145, -1.01526717557, -0.30534351145
2.008836030960083,-1.34314713135, 0.529118566895, 9.59835445557, 31.0534351145, -1.01526717557, -0.30534351145
2.0117430686950684,-1.34314713135, 0.529118566895, 9.59835445557, 31.0534351145, -1.01526717557, -0.30534351145
2.0184030532836914,-1.34314713135, 0.529118566895, 9.59835445557, 31.0534351145, -1.01526717557, -0.30534351145
2.02174711227417,-1.34314713135, 0.529118566895, 9.59835445557, 31.0534351145, -1.01526717557, -0.30534351145
2.0284011363983154,-1.34314713135, 0.529118566895, 9.59835445557, 31.0534351145, -1.01526717557, -0.30534351145
2.031208038330078,-1.34314713135, 0.529118566895, 9.59835445557, 31.0534351145, -1.01526717557, -0.30534351145
2.0437121391296387,-1.34314713135, 0.529118566895, 9.59835445557, 31.0534351145, -1.01526717557, -0.30534351145
2.048983097076416,-1.34314713135, 0.529118566895, 9.59835445557, 31.0534351145, -1.01526717557, -0.30534351145
2.0594680309295654,-1.34314713135, 0.529118566895, 9.59835445557, 31.0534351145, -1.01526717557, -0.30534351145
2.063645124435425,-1.34314713135, 0.529118566895, 9.59835445557, 31.0534351145, -1.01526717557, -0.30534351145
2.066540002822876,-1.34314713135, 0.529118566895, 9.59835445557, 31.0534351145, -1.01526717557, -0.30534351145
2.0696489810943604,-1.34314713135, 0.529118566895, 9.59835445557, 31.0534351145, -1.01526717557, -0.30534351145
2.0751571655273438,-1.25695587158, 0.45968671875, 9.56962403564, 30.6870229008, -1.00763358779, -0.259541984733
2.0782880783081055,-1.25695587158, 0.45968671875, 9.56962403564, 30.6870229008, -1.00763358779, -0.259541984733
2.0830910205841064,-1.25695587158, 0.45968671875, 9.56962403564, 30.6870229008, -1.00763358779, -0.259541984733
2.0880391597747803,-1.25695587158, 0.45968671875, 9.56962403564, 30.6870229008, -1.00763358779, -0.259541984733
2.09098219871521,-1.25695587158, 0.45968671875, 9.56962403564, 30.6870229008, -1.00763358779, -0.259541984733
2.0937490463256836,-1.25695587158, 0.45968671875, 9.56962403564, 30.6870229008, -1.00763358779, -0.259541984733
2.0956830978393555,-1.25695587158, 0.45968671875, 9.56962403564, 30.6870229008, -1.00763358779, -0.259541984733
2.1016831398010254,-1.25695587158, 0.45968671875, 9.56962403564, 30.6870229008, -1.00763358779, -0.259541984733
2.107055187225342,-1.25695587158, 0.45968671875, 9.56962403564, 30.6870229008, -1.00763358779, -0.259541984733
2.113197088241577,-1.25695587158, 0.45968671875, 9.56962403564, 30.6870229008, -1.00763358779, -0.259541984733
2.1216251850128174,-1.25695587158, 0.45968671875, 9.56962403564, 30.6870229008, -1.00763358779, -0.259541984733
2.124932050704956,-1.25695587158, 0.45968671875, 9.56962403564, 30.6870229008, -1.00763358779, -0.259541984733
2.1308140754699707,-1.25695587158, 0.45968671875, 9.56962403564, 30.6870229008, -1.00763358779, -0.259541984733
2.1343460083007812,-1.25695587158, 0.45968671875, 9.56962403564, 30.6870229008, -1.00763358779, -0.259541984733
2.1453630924224854,-1.25695587158, 0.45968671875, 9.56962403564, 30.6870229008, -1.00763358779, -0.259541984733
2.148527145385742,-1.25695587158, 0.45968671875, 9.56962403564, 30.6870229008, -1.00763358779, -0.259541984733
2.1517341136932373,-1.25695587158, 0.45968671875, 9.56962403564, 30.6870229008, -1.00763358779, -0.259541984733
2.155003070831299,-1.25695587158, 0.45968671875, 9.56962403564, 30.6870229008, -1.00763358779, -0.259541984733
2.1579370498657227,-1.25695587158, 0.45968671875, 9.56962403564, 30.6870229008, -1.00763358779, -0.259541984733
2.1600430011749268,-1.25695587158, 0.45968671875, 9.56962403564, 30.6870229008, -1.00763358779, -0.259541984733
2.163748025894165,-1.25695587158, 0.45968671875, 9.56962403564, 30.6870229008, -1.00763358779, -0.259541984733
2.167652130126953,-1.25695587158, 0.45968671875, 9.56962403564, 30.6870229008, -1.00763358779, -0.259541984733
2.17142915725708,-1.25695587158, 0.45968671875, 9.56962403564, 30.6870229008, -1.00763358779, -0.259541984733
2.1839091777801514,-1.33596452637, 0.529118566895, 9.56962403564, 30.7251908397, -1.00763358779, -0.145038167939
2.1878931522369385,-1.33596452637, 0.529118566895, 9.56962403564, 30.7251908397, -1.00763358779, -0.145038167939
2.193286180496216,-1.33596452637, 0.529118566895, 9.56962403564, 30.7251908397, -1.00763358779, -0.145038167939
2.196053981781006,-1.33596452637, 0.529118566895, 9.56962403564, 30.7251908397, -1.00763358779, -0.145038167939
2.202355146408081,-1.33596452637, 0.529118566895, 9.56962403564, 30.7251908397, -1.00763358779, -0.145038167939
2.2056870460510254,-1.33596452637, 0.529118566895, 9.56962403564, 30.7251908397, -1.00763358779, -0.145038167939
2.21181321144104,-1.33596452637, 0.529118566895, 9.56962403564, 30.7251908397, -1.00763358779, -0.145038167939
2.2145280838012695,-1.33596452637, 0.529118566895, 9.56962403564, 30.7251908397, -1.00763358779, -0.145038167939
2.218111038208008,-1.33596452637, 0.529118566895, 9.56962403564, 30.7251908397, -1.00763358779, -0.145038167939
2.222670078277588,-1.33596452637, 0.529118566895, 9.56962403564, 30.7251908397, -1.00763358779, -0.145038167939
2.225250005722046,-1.33596452637, 0.529118566895, 9.56962403564, 30.7251908397, -1.00763358779, -0.145038167939
2.23020601272583,-1.33596452637, 0.529118566895, 9.56962403564, 30.7251908397, -1.00763358779, -0.145038167939
2.235856056213379,-1.33596452637, 0.529118566895, 9.56962403564, 30.7251908397, -1.00763358779, -0.145038167939
2.2516050338745117,-1.33596452637, 0.529118566895, 9.56962403564, 30.7251908397, -1.00763358779, -0.145038167939
2.254634141921997,-1.33596452637, 0.529118566895, 9.56962403564, 30.7251908397, -1.00763358779, -0.145038167939
2.2578330039978027,-1.33596452637, 0.529118566895, 9.56962403564, 30.7251908397, -1.00763358779, -0.145038167939
2.2610011100769043,-1.33596452637, 0.529118566895, 9.56962403564, 30.7251908397, -1.00763358779, -0.145038167939
2.264111042022705,-1.33596452637, 0.529118566895, 9.56962403564, 30.7251908397, -1.00763358779, -0.145038167939
2.267446994781494,-1.33596452637, 0.529118566895, 9.56962403564, 30.7251908397, -1.00763358779, -0.145038167939
2.2702441215515137,-1.33596452637, 0.529118566895, 9.56962403564, 30.7251908397, -1.00763358779, -0.145038167939
2.2764201164245605,-1.35272393799, 0.524330163574, 9.50737479248, 30.7709923664, -1.12213740458, -0.381679389313
2.2823190689086914,-1.35272393799, 0.524330163574, 9.50737479248, 30.7709923664, -1.12213740458, -0.381679389313
2.2841131687164307,-1.35272393799, 0.524330163574, 9.50737479248, 30.7709923664, -1.12213740458, -0.381679389313
2.289558172225952,-1.35272393799, 0.524330163574, 9.50737479248, 30.7709923664, -1.12213740458, -0.381679389313
2.2939300537109375,-1.35272393799, 0.524330163574, 9.50737479248, 30.7709923664, -1.12213740458, -0.381679389313
2.3037869930267334,-1.35272393799, 0.524330163574, 9.50737479248, 30.7709923664, -1.12213740458, -0.381679389313
2.311305046081543,-1.35272393799, 0.524330163574, 9.50737479248, 30.7709923664, -1.12213740458, -0.381679389313
2.314096212387085,-1.35272393799, 0.524330163574, 9.50737479248, 30.7709923664, -1.12213740458, -0.381679389313
2.317000150680542,-1.35272393799, 0.524330163574, 9.50737479248, 30.7709923664, -1.12213740458, -0.381679389313
2.323199987411499,-1.35272393799, 0.524330163574, 9.50737479248, 30.7709923664, -1.12213740458, -0.381679389313
2.327529191970825,-1.35272393799, 0.524330163574, 9.50737479248, 30.7709923664, -1.12213740458, -0.381679389313
2.3300721645355225,-1.35272393799, 0.524330163574, 9.50737479248, 30.7709923664, -1.12213740458, -0.381679389313
2.3327860832214355,-1.35272393799, 0.524330163574, 9.50737479248, 30.7709923664, -1.12213740458, -0.381679389313
2.335658073425293,-1.35272393799, 0.524330163574, 9.50737479248, 30.7709923664, -1.12213740458, -0.381679389313
2.3400790691375732,-1.35272393799, 0.524330163574, 9.50737479248, 30.7709923664, -1.12213740458, -0.381679389313
2.3468101024627686,-1.35272393799, 0.524330163574, 9.50737479248, 30.7709923664, -1.12213740458, -0.381679389313
2.355962038040161,-1.35272393799, 0.524330163574, 9.50737479248, 30.7709923664, -1.12213740458, -0.381679389313
2.360300064086914,-1.35272393799, 0.524330163574, 9.50737479248, 30.7709923664, -1.12213740458, -0.381679389313
2.369279146194458,-1.35272393799, 0.524330163574, 9.50737479248, 30.7709923664, -1.12213740458, -0.381679389313
2.377380132675171,-1.34314713135, 0.529118566895, 9.5001921875, 30.7557251908, -1.0, -0.251908396947
2.3801651000976562,-1.34314713135, 0.529118566895, 9.5001921875, 30.7557251908, -1.0, -0.251908396947
2.383117198944092,-1.34314713135, 0.529118566895, 9.5001921875, 30.7557251908, -1.0, -0.251908396947
2.385867118835449,-1.34314713135, 0.529118566895, 9.5001921875, 30.7557251908, -1.0, -0.251908396947
2.3894309997558594,-1.34314713135, 0.529118566895, 9.5001921875, 30.7557251908, -1.0, -0.251908396947
2.3966641426086426,-1.34314713135, 0.529118566895, 9.5001921875, 30.7557251908, -1.0, -0.251908396947
2.402531147003174,-1.34314713135, 0.529118566895, 9.5001921875, 30.7557251908, -1.0, -0.251908396947
2.4079291820526123,-1.34314713135, 0.529118566895, 9.5001921875, 30.7557251908, -1.0, -0.251908396947
2.4188661575317383,-1.34314713135, 0.529118566895, 9.5001921875, 30.7557251908, -1.0, -0.251908396947
2.4245731830596924,-1.34314713135, 0.529118566895, 9.5001921875, 30.7557251908, -1.0, -0.251908396947
2.4327950477600098,-1.34314713135, 0.529118566895, 9.5001921875, 30.7557251908, -1.0, -0.251908396947
2.4402401447296143,-1.34314713135, 0.529118566895, 9.5001921875, 30.7557251908, -1.0, -0.251908396947
2.4447991847991943,-1.34314713135, 0.529118566895, 9.5001921875, 30.7557251908, -1.0, -0.251908396947
2.4483931064605713,-1.34314713135, 0.529118566895, 9.5001921875, 30.7557251908, -1.0, -0.251908396947
2.45209002494812,-1.34314713135, 0.529118566895, 9.5001921875, 30.7557251908, -1.0, -0.251908396947
2.4554061889648438,-1.34314713135, 0.529118566895, 9.5001921875, 30.7557251908, -1.0, -0.251908396947
2.468662977218628,-1.34314713135, 0.529118566895, 9.5001921875, 30.7557251908, -1.0, -0.251908396947
2.4705400466918945,-1.34314713135, 0.529118566895, 9.5001921875, 30.7557251908, -1.0, -0.251908396947
2.4739701747894287,-1.34314713135, 0.529118566895, 9.5001921875, 30.7557251908, -1.0, -0.251908396947
2.495974063873291,-1.35751234131, 0.469263525391, 9.560047229, 30.6641221374, -0.763358778626, -0.236641221374
2.4999020099639893,-1.35751234131, 0.469263525391, 9.560047229, 30.6641221374, -0.763358778626, -0.236641221374
2.5036780834198,-1.35751234131, 0.469263525391, 9.560047229, 30.6641221374, -0.763358778626, -0.236641221374
2.5196211338043213,-1.35751234131, 0.469263525391, 9.560047229, 30.6641221374, -0.763358778626, -0.236641221374
2.5236330032348633,-1.35751234131, 0.469263525391, 9.560047229, 30.6641221374, -0.763358778626, -0.236641221374
2.5283679962158203,-1.35751234131, 0.469263525391, 9.560047229, 30.6641221374, -0.763358778626, -0.236641221374
2.5303142070770264,-1.35751234131, 0.469263525391, 9.560047229, 30.6641221374, -0.763358778626, -0.236641221374
2.541337013244629,-1.35751234131, 0.469263525391, 9.560047229, 30.6641221374, -0.763358778626, -0.236641221374
2.552025079727173,-1.35751234131, 0.469263525391, 9.560047229, 30.6641221374, -0.763358778626, -0.236641221374
2.566481113433838,-1.35751234131, 0.469263525391, 9.560047229, 30.6641221374, -0.763358778626, -0.236641221374
2.5751161575317383,-1.32159931641, 0.519541760254, 9.54089361572, 31.0839694656, -1.0534351145, -0.0916030534351
2.577822208404541,-1.32159931641, 0.519541760254, 9.54089361572, 31.0839694656, -1.0534351145, -0.0916030534351
2.5819849967956543,-1.32159931641, 0.519541760254, 9.54089361572, 31.0839694656, -1.0534351145, -0.0916030534351
2.5843892097473145,-1.32159931641, 0.519541760254, 9.54089361572, 31.0839694656, -1.0534351145, -0.0916030534351
2.588081121444702,-1.32159931641, 0.519541760254, 9.54089361572, 31.0839694656, -1.0534351145, -0.0916030534351
2.589750051498413,-1.32159931641, 0.519541760254, 9.54089361572, 31.0839694656, -1.0534351145, -0.0916030534351
2.593196153640747,-1.32159931641, 0.519541760254, 9.54089361572, 31.0839694656, -1.0534351145, -0.0916030534351
2.5968050956726074,-1.32159931641, 0.519541760254, 9.54089361572, 31.0839694656, -1.0534351145, -0.0916030534351
2.6005351543426514,-1.32159931641, 0.519541760254, 9.54089361572, 31.0839694656, -1.0534351145, -0.0916030534351
2.6058051586151123,-1.32159931641, 0.519541760254, 9.54089361572, 31.0839694656, -1.0534351145, -0.0916030534351
2.6109201908111572,-1.32159931641, 0.519541760254, 9.54089361572, 31.0839694656, -1.0534351145, -0.0916030534351
2.6126351356506348,-1.32159931641, 0.519541760254, 9.54089361572, 31.0839694656, -1.0534351145, -0.0916030534351
2.614784002304077,-1.32159931641, 0.519541760254, 9.54089361572, 31.0839694656, -1.0534351145, -0.0916030534351
2.6167681217193604,-1.32159931641, 0.519541760254, 9.54089361572, 31.0839694656, -1.0534351145, -0.0916030534351
2.618504047393799,-1.32159931641, 0.519541760254, 9.54089361572, 31.0839694656, -1.0534351145, -0.0916030534351
2.620415210723877,-1.32159931641, 0.519541760254, 9.54089361572, 31.0839694656, -1.0534351145, -0.0916030534351
2.6221401691436768,-1.32159931641, 0.519541760254, 9.54089361572, 31.0839694656, -1.0534351145, -0.0916030534351
2.6241331100463867,-1.32159931641, 0.519541760254, 9.54089361572, 31.0839694656, -1.0534351145, -0.0916030534351
2.626272201538086,-1.32159931641, 0.519541760254, 9.54089361572, 31.0839694656, -1.0534351145, -0.0916030534351
2.628251075744629,-1.32159931641, 0.519541760254, 9.54089361572, 31.0839694656, -1.0534351145, -0.0916030534351
2.6300740242004395,-1.32159931641, 0.519541760254, 9.54089361572, 31.0839694656, -1.0534351145, -0.0916030534351
2.6403450965881348,-1.32159931641, 0.519541760254, 9.54089361572, 31.0839694656, -1.0534351145, -0.0916030534351
2.648844003677368,-1.32159931641, 0.519541760254, 9.54089361572, 31.0839694656, -1.0534351145, -0.0916030534351
2.6520230770111084,-1.32159931641, 0.519541760254, 9.54089361572, 31.0839694656, -1.0534351145, -0.0916030534351
2.6555709838867188,-1.32159931641, 0.519541760254, 9.54089361572, 31.0839694656, -1.0534351145, -0.0916030534351
2.658997058868408,-1.32159931641, 0.519541760254, 9.54089361572, 31.0839694656, -1.0534351145, -0.0916030534351
2.6644229888916016,-1.32159931641, 0.519541760254, 9.54089361572, 31.0839694656, -1.0534351145, -0.0916030534351
2.674422025680542,-1.32159931641, 0.488417138672, 9.65342109375, 30.6870229008, -1.11450381679, -0.251908396947
2.6774110794067383,-1.32159931641, 0.488417138672, 9.65342109375, 30.6870229008, -1.11450381679, -0.251908396947
2.682342052459717,-1.32159931641, 0.488417138672, 9.65342109375, 30.6870229008, -1.11450381679, -0.251908396947
2.6899070739746094,-1.32159931641, 0.488417138672, 9.65342109375, 30.6870229008, -1.11450381679, -0.251908396947
2.6970481872558594,-1.32159931641, 0.488417138672, 9.65342109375, 30.6870229008, -1.11450381679, -0.251908396947
2.7048730850219727,-1.32159931641, 0.488417138672, 9.65342109375, 30.6870229008, -1.11450381679, -0.251908396947
2.709388017654419,-1.32159931641, 0.488417138672, 9.65342109375, 30.6870229008, -1.11450381679, -0.251908396947
2.712545156478882,-1.32159931641, 0.488417138672, 9.65342109375, 30.6870229008, -1.11450381679, -0.251908396947
2.716369152069092,-1.32159931641, 0.488417138672, 9.65342109375, 30.6870229008, -1.11450381679, -0.251908396947
2.722342014312744,-1.32159931641, 0.488417138672, 9.65342109375, 30.6870229008, -1.11450381679, -0.251908396947
2.725831985473633,-1.32159931641, 0.488417138672, 9.65342109375, 30.6870229008, -1.11450381679, -0.251908396947
2.729727029800415,-1.32159931641, 0.488417138672, 9.65342109375, 30.6870229008, -1.11450381679, -0.251908396947
2.732697010040283,-1.32159931641, 0.488417138672, 9.65342109375, 30.6870229008, -1.11450381679, -0.251908396947
2.735863208770752,-1.32159931641, 0.488417138672, 9.65342109375, 30.6870229008, -1.11450381679, -0.251908396947
2.738399028778076,-1.32159931641, 0.488417138672, 9.65342109375, 30.6870229008, -1.11450381679, -0.251908396947
2.7406911849975586,-1.32159931641, 0.488417138672, 9.65342109375, 30.6870229008, -1.11450381679, -0.251908396947
2.744502067565918,-1.32159931641, 0.488417138672, 9.65342109375, 30.6870229008, -1.11450381679, -0.251908396947
2.776848077774048,-1.38145435791, 0.555454785156, 9.55525882568, 30.7709923664, -1.21374045802, -0.267175572519
2.779952049255371,-1.38145435791, 0.555454785156, 9.55525882568, 30.7709923664, -1.21374045802, -0.267175572519
2.7830162048339844,-1.38145435791, 0.555454785156, 9.55525882568, 30.7709923664, -1.21374045802, -0.267175572519
2.786013126373291,-1.38145435791, 0.555454785156, 9.55525882568, 30.7709923664, -1.21374045802, -0.267175572519
2.7887961864471436,-1.38145435791, 0.555454785156, 9.55525882568, 30.7709923664, -1.21374045802, -0.267175572519
2.791802167892456,-1.38145435791, 0.555454785156, 9.55525882568, 30.7709923664, -1.21374045802, -0.267175572519
2.7947051525115967,-1.38145435791, 0.555454785156, 9.55525882568, 30.7709923664, -1.21374045802, -0.267175572519
2.79653000831604,-1.38145435791, 0.555454785156, 9.55525882568, 30.7709923664, -1.21374045802, -0.267175572519
2.799039125442505,-1.38145435791, 0.555454785156, 9.55525882568, 30.7709923664, -1.21374045802, -0.267175572519
2.8034110069274902,-1.38145435791, 0.555454785156, 9.55525882568, 30.7709923664, -1.21374045802, -0.267175572519
2.808277130126953,-1.38145435791, 0.555454785156, 9.55525882568, 30.7709923664, -1.21374045802, -0.267175572519
2.814481019973755,-1.38145435791, 0.555454785156, 9.55525882568, 30.7709923664, -1.21374045802, -0.267175572519
2.820078134536743,-1.38145435791, 0.555454785156, 9.55525882568, 30.7709923664, -1.21374045802, -0.267175572519
2.8232171535491943,-1.38145435791, 0.555454785156, 9.55525882568, 30.7709923664, -1.21374045802, -0.267175572519
2.8264050483703613,-1.38145435791, 0.555454785156, 9.55525882568, 30.7709923664, -1.21374045802, -0.267175572519
2.829320192337036,-1.38145435791, 0.555454785156, 9.55525882568, 30.7709923664, -1.21374045802, -0.267175572519
2.83258318901062,-1.38145435791, 0.555454785156, 9.55525882568, 30.7709923664, -1.21374045802, -0.267175572519
2.83907413482666,-1.38145435791, 0.555454785156, 9.55525882568, 30.7709923664, -1.21374045802, -0.267175572519
2.845553159713745,-1.38145435791, 0.555454785156, 9.55525882568, 30.7709923664, -1.21374045802, -0.267175572519
2.8489990234375,-1.38145435791, 0.555454785156, 9.55525882568, 30.7709923664, -1.21374045802, -0.267175572519
2.852112054824829,-1.38145435791, 0.555454785156, 9.55525882568, 30.7709923664, -1.21374045802, -0.267175572519
2.8550281524658203,-1.38145435791, 0.555454785156, 9.55525882568, 30.7709923664, -1.21374045802, -0.267175572519
2.857532024383545,-1.38145435791, 0.555454785156, 9.55525882568, 30.7709923664, -1.21374045802, -0.267175572519
2.859920024871826,-1.38145435791, 0.555454785156, 9.55525882568, 30.7709923664, -1.21374045802, -0.267175572519
2.8639941215515137,-1.38145435791, 0.555454785156, 9.55525882568, 30.7709923664, -1.21374045802, -0.267175572519
2.8683621883392334,-1.38145435791, 0.555454785156, 9.55525882568, 30.7709923664, -1.21374045802, -0.267175572519
2.879242181777954,-1.35511813965, 0.562637390137, 9.60314285889, 30.9160305344, -1.11450381679, -0.152671755725
2.8826851844787598,-1.35511813965, 0.562637390137, 9.60314285889, 30.9160305344, -1.11450381679, -0.152671755725
2.8882081508636475,-1.35511813965, 0.562637390137, 9.60314285889, 30.9160305344, -1.11450381679, -0.152671755725
2.8921051025390625,-1.35511813965, 0.562637390137, 9.60314285889, 30.9160305344, -1.11450381679, -0.152671755725
2.8951730728149414,-1.35511813965, 0.562637390137, 9.60314285889, 30.9160305344, -1.11450381679, -0.152671755725
2.898189067840576,-1.35511813965, 0.562637390137, 9.60314285889, 30.9160305344, -1.11450381679, -0.152671755725
2.901029109954834,-1.35511813965, 0.562637390137, 9.60314285889, 30.9160305344, -1.11450381679, -0.152671755725
2.9046502113342285,-1.35511813965, 0.562637390137, 9.60314285889, 30.9160305344, -1.11450381679, -0.152671755725
2.9080581665039062,-1.35511813965, 0.562637390137, 9.60314285889, 30.9160305344, -1.11450381679, -0.152671755725
2.9106781482696533,-1.35511813965, 0.562637390137, 9.60314285889, 30.9160305344, -1.11450381679, -0.152671755725
2.914234161376953,-1.35511813965, 0.562637390137, 9.60314285889, 30.9160305344, -1.11450381679, -0.152671755725
2.9180381298065186,-1.35511813965, 0.562637390137, 9.60314285889, 30.9160305344, -1.11450381679, -0.152671755725
2.920044183731079,-1.35511813965, 0.562637390137, 9.60314285889, 30.9160305344, -1.11450381679, -0.152671755725
2.9220449924468994,-1.35511813965, 0.562637390137, 9.60314285889, 30.9160305344, -1.11450381679, -0.152671755725
2.9260001182556152,-1.35511813965, 0.562637390137, 9.60314285889, 30.9160305344, -1.11450381679, -0.152671755725
2.9301459789276123,-1.35511813965, 0.562637390137, 9.60314285889, 30.9160305344, -1.11450381679, -0.152671755725
2.9389841556549072,-1.35511813965, 0.562637390137, 9.60314285889, 30.9160305344, -1.11450381679, -0.152671755725
2.9451441764831543,-1.35511813965, 0.562637390137, 9.60314285889, 30.9160305344, -1.11450381679, -0.152671755725
2.9531240463256836,-1.35511813965, 0.562637390137, 9.60314285889, 30.9160305344, -1.11450381679, -0.152671755725
2.9561660289764404,-1.35511813965, 0.562637390137, 9.60314285889, 30.9160305344, -1.11450381679, -0.152671755725
2.959787130355835,-1.35511813965, 0.562637390137, 9.60314285889, 30.9160305344, -1.11450381679, -0.152671755725
2.9628331661224365,-1.35511813965, 0.562637390137, 9.60314285889, 30.9160305344, -1.11450381679, -0.152671755725
2.966076135635376,-1.35511813965, 0.562637390137, 9.60314285889, 30.9160305344, -1.11450381679, -0.152671755725
2.968536138534546,-1.35511813965, 0.562637390137, 9.60314285889, 30.9160305344, -1.11450381679, -0.152671755725
2.9714441299438477,-1.35511813965, 0.562637390137, 9.60314285889, 30.9160305344, -1.11450381679, -0.152671755725
2.9744250774383545,-1.35511813965, 0.562637390137, 9.60314285889, 30.9160305344, -1.11450381679, -0.152671755725
2.9774601459503174,-1.35511813965, 0.562637390137, 9.60314285889, 30.9160305344, -1.11450381679, -0.152671755725
2.9801011085510254,-1.35511813965, 0.562637390137, 9.60314285889, 30.9160305344, -1.11450381679, -0.152671755725
2.989819049835205,-1.36230074463, 0.517147558594, 9.5720182373, 30.8854961832, -1.27480916031, -0.213740458015
2.994054079055786,-1.36230074463, 0.517147558594, 9.5720182373, 30.8854961832, -1.27480916031, -0.213740458015
3.0034031867980957,-1.36230074463, 0.517147558594, 9.5720182373, 30.8854961832, -1.27480916031, -0.213740458015
3.0067031383514404,-1.36230074463, 0.517147558594, 9.5720182373, 30.8854961832, -1.27480916031, -0.213740458015
3.0096681118011475,-1.36230074463, 0.517147558594, 9.5720182373, 30.8854961832, -1.27480916031, -0.213740458015
3.0128681659698486,-1.36230074463, 0.517147558594, 9.5720182373, 30.8854961832, -1.27480916031, -0.213740458015
3.015890121459961,-1.36230074463, 0.517147558594, 9.5720182373, 30.8854961832, -1.27480916031, -0.213740458015
3.019092082977295,-1.36230074463, 0.517147558594, 9.5720182373, 30.8854961832, -1.27480916031, -0.213740458015
3.0218820571899414,-1.36230074463, 0.517147558594, 9.5720182373, 30.8854961832, -1.27480916031, -0.213740458015
3.07944917678833,-1.33117612305, 0.490811340332, 9.5720182373, 30.8778625954, -1.3358778626, -0.358778625954
3.0827300548553467,-1.33117612305, 0.490811340332, 9.5720182373, 30.8778625954, -1.3358778626, -0.358778625954
3.0855510234832764,-1.33117612305, 0.490811340332, 9.5720182373, 30.8778625954, -1.3358778626, -0.358778625954
3.088893175125122,-1.33117612305, 0.490811340332, 9.5720182373, 30.8778625954, -1.3358778626, -0.358778625954
3.0960631370544434,-1.33117612305, 0.490811340332, 9.5720182373, 30.8778625954, -1.3358778626, -0.358778625954
3.098004102706909,-1.33117612305, 0.490811340332, 9.5720182373, 30.8778625954, -1.3358778626, -0.358778625954
3.099961042404175,-1.33117612305, 0.490811340332, 9.5720182373, 30.8778625954, -1.3358778626, -0.358778625954
3.101637125015259,-1.33117612305, 0.490811340332, 9.5720182373, 30.8778625954, -1.3358778626, -0.358778625954
3.103407144546509,-1.33117612305, 0.490811340332, 9.5720182373, 30.8778625954, -1.3358778626, -0.358778625954
3.105926990509033,-1.33117612305, 0.490811340332, 9.5720182373, 30.8778625954, -1.3358778626, -0.358778625954
3.108673095703125,-1.33117612305, 0.490811340332, 9.5720182373, 30.8778625954, -1.3358778626, -0.358778625954
3.1111299991607666,-1.33117612305, 0.490811340332, 9.5720182373, 30.8778625954, -1.3358778626, -0.358778625954
3.1132001876831055,-1.33117612305, 0.490811340332, 9.5720182373, 30.8778625954, -1.3358778626, -0.358778625954
3.1148760318756104,-1.33117612305, 0.490811340332, 9.5720182373, 30.8778625954, -1.3358778626, -0.358778625954
3.1169052124023438,-1.33117612305, 0.490811340332, 9.5720182373, 30.8778625954, -1.3358778626, -0.358778625954
3.1230640411376953,-1.33117612305, 0.490811340332, 9.5720182373, 30.8778625954, -1.3358778626, -0.358778625954
3.12874698638916,-1.33117612305, 0.490811340332, 9.5720182373, 30.8778625954, -1.3358778626, -0.358778625954
3.147292137145996,-1.33117612305, 0.490811340332, 9.5720182373, 30.8778625954, -1.3358778626, -0.358778625954
3.164666175842285,-1.33117612305, 0.490811340332, 9.5720182373, 30.8778625954, -1.3358778626, -0.358778625954
3.1759181022644043,-1.39821376953, 0.495599743652, 9.72524714355, 31.0, -0.786259541985, -0.259541984733
3.178050994873047,-1.39821376953, 0.495599743652, 9.72524714355, 31.0, -0.786259541985, -0.259541984733
3.1831161975860596,-1.39821376953, 0.495599743652, 9.72524714355, 31.0, -0.786259541985, -0.259541984733
3.1947011947631836,-1.39821376953, 0.495599743652, 9.72524714355, 31.0, -0.786259541985, -0.259541984733
3.2022080421447754,-1.39821376953, 0.495599743652, 9.72524714355, 31.0, -0.786259541985, -0.259541984733
3.208156108856201,-1.39821376953, 0.495599743652, 9.72524714355, 31.0, -0.786259541985, -0.259541984733
3.211395025253296,-1.39821376953, 0.495599743652, 9.72524714355, 31.0, -0.786259541985, -0.259541984733
3.2154040336608887,-1.39821376953, 0.495599743652, 9.72524714355, 31.0, -0.786259541985, -0.259541984733
3.235689163208008,-1.39821376953, 0.495599743652, 9.72524714355, 31.0, -0.786259541985, -0.259541984733
3.238943099975586,-1.39821376953, 0.495599743652, 9.72524714355, 31.0, -0.786259541985, -0.259541984733
3.2415339946746826,-1.39821376953, 0.495599743652, 9.72524714355, 31.0, -0.786259541985, -0.259541984733
3.249627113342285,-1.39821376953, 0.495599743652, 9.72524714355, 31.0, -0.786259541985, -0.259541984733
3.2609291076660156,-1.39821376953, 0.495599743652, 9.72524714355, 31.0, -0.786259541985, -0.259541984733
3.266134023666382,-1.39821376953, 0.495599743652, 9.72524714355, 31.0, -0.786259541985, -0.259541984733
3.268860101699829,-1.39821376953, 0.495599743652, 9.72524714355, 31.0, -0.786259541985, -0.259541984733
3.2714931964874268,-1.39821376953, 0.495599743652, 9.72524714355, 31.0, -0.786259541985, -0.259541984733
3.2746059894561768,-1.39821376953, 0.495599743652, 9.72524714355, 31.0, -0.786259541985, -0.259541984733
3.2770490646362305,-1.39821376953, 0.495599743652, 9.72524714355, 31.0, -0.786259541985, -0.259541984733
3.2829601764678955,-1.27132108154, 0.531512768555, 9.61271966553, 30.8625954198, -1.16030534351, -0.137404580153
3.285158157348633,-1.27132108154, 0.531512768555, 9.61271966553, 30.8625954198, -1.16030534351, -0.137404580153
3.2874810695648193,-1.27132108154, 0.531512768555, 9.61271966553, 30.8625954198, -1.16030534351, -0.137404580153
3.2895030975341797,-1.27132108154, 0.531512768555, 9.61271966553, 30.8625954198, -1.16030534351, -0.137404580153
3.2917330265045166,-1.27132108154, 0.531512768555, 9.61271966553, 30.8625954198, -1.16030534351, -0.137404580153
3.294009208679199,-1.27132108154, 0.531512768555, 9.61271966553, 30.8625954198, -1.16030534351, -0.137404580153
3.2960731983184814,-1.27132108154, 0.531512768555, 9.61271966553, 30.8625954198, -1.16030534351, -0.137404580153
3.298114061355591,-1.27132108154, 0.531512768555, 9.61271966553, 30.8625954198, -1.16030534351, -0.137404580153
3.3001861572265625,-1.27132108154, 0.531512768555, 9.61271966553, 30.8625954198, -1.16030534351, -0.137404580153
3.3020131587982178,-1.27132108154, 0.531512768555, 9.61271966553, 30.8625954198, -1.16030534351, -0.137404580153
3.303901195526123,-1.27132108154, 0.531512768555, 9.61271966553, 30.8625954198, -1.16030534351, -0.137404580153
3.306361198425293,-1.27132108154, 0.531512768555, 9.61271966553, 30.8625954198, -1.16030534351, -0.137404580153
3.3096671104431152,-1.27132108154, 0.531512768555, 9.61271966553, 30.8625954198, -1.16030534351, -0.137404580153
3.3134851455688477,-1.27132108154, 0.531512768555, 9.61271966553, 30.8625954198, -1.16030534351, -0.137404580153
3.3180789947509766,-1.27132108154, 0.531512768555, 9.61271966553, 30.8625954198, -1.16030534351, -0.137404580153
3.3222789764404297,-1.27132108154, 0.531512768555, 9.61271966553, 30.8625954198, -1.16030534351, -0.137404580153
3.325949192047119,-1.27132108154, 0.531512768555, 9.61271966553, 30.8625954198, -1.16030534351, -0.137404580153
3.330379009246826,-1.27132108154, 0.531512768555, 9.61271966553, 30.8625954198, -1.16030534351, -0.137404580153
3.334616184234619,-1.27132108154, 0.531512768555, 9.61271966553, 30.8625954198, -1.16030534351, -0.137404580153
3.341618061065674,-1.27132108154, 0.531512768555, 9.61271966553, 30.8625954198, -1.16030534351, -0.137404580153
3.347029209136963,-1.27132108154, 0.531512768555, 9.61271966553, 30.8625954198, -1.16030534351, -0.137404580153
3.359483003616333,-1.27132108154, 0.531512768555, 9.61271966553, 30.8625954198, -1.16030534351, -0.137404580153
3.3654091358184814,-1.27132108154, 0.531512768555, 9.61271966553, 30.8625954198, -1.16030534351, -0.137404580153
3.3697030544281006,-1.27132108154, 0.531512768555, 9.61271966553, 30.8625954198, -1.16030534351, -0.137404580153
3.3740651607513428,-1.27132108154, 0.531512768555, 9.61271966553, 30.8625954198, -1.16030534351, -0.137404580153
3.3858602046966553,-1.41018477783, 0.536301171875, 9.61750806885, 30.5954198473, -1.35114503817, -0.351145038168
3.3914661407470703,-1.41018477783, 0.536301171875, 9.61750806885, 30.5954198473, -1.35114503817, -0.351145038168
3.3965489864349365,-1.41018477783, 0.536301171875, 9.61750806885, 30.5954198473, -1.35114503817, -0.351145038168
3.399057149887085,-1.41018477783, 0.536301171875, 9.61750806885, 30.5954198473, -1.35114503817, -0.351145038168
3.4055211544036865,-1.41018477783, 0.536301171875, 9.61750806885, 30.5954198473, -1.35114503817, -0.351145038168
3.4131832122802734,-1.41018477783, 0.536301171875, 9.61750806885, 30.5954198473, -1.35114503817, -0.351145038168
3.4254209995269775,-1.41018477783, 0.536301171875, 9.61750806885, 30.5954198473, -1.35114503817, -0.351145038168
3.4384100437164307,-1.41018477783, 0.536301171875, 9.61750806885, 30.5954198473, -1.35114503817, -0.351145038168
3.4483611583709717,-1.41018477783, 0.536301171875, 9.61750806885, 30.5954198473, -1.35114503817, -0.351145038168
3.458252191543579,-1.41018477783, 0.536301171875, 9.61750806885, 30.5954198473, -1.35114503817, -0.351145038168
3.4873411655426025,-1.35511813965, 0.526724365234, 9.64145008545, 30.8549618321, -1.27480916031, -0.328244274809
3.4905030727386475,-1.35511813965, 0.526724365234, 9.64145008545, 30.8549618321, -1.27480916031, -0.328244274809
3.495086193084717,-1.35511813965, 0.526724365234, 9.64145008545, 30.8549618321, -1.27480916031, -0.328244274809
3.498721122741699,-1.35511813965, 0.526724365234, 9.64145008545, 30.8549618321, -1.27480916031, -0.328244274809
3.5015439987182617,-1.35511813965, 0.526724365234, 9.64145008545, 30.8549618321, -1.27480916031, -0.328244274809
3.5051209926605225,-1.35511813965, 0.526724365234, 9.64145008545, 30.8549618321, -1.27480916031, -0.328244274809
3.508660078048706,-1.35511813965, 0.526724365234, 9.64145008545, 30.8549618321, -1.27480916031, -0.328244274809
3.5117690563201904,-1.35511813965, 0.526724365234, 9.64145008545, 30.8549618321, -1.27480916031, -0.328244274809
3.515510082244873,-1.35511813965, 0.526724365234, 9.64145008545, 30.8549618321, -1.27480916031, -0.328244274809
3.5190610885620117,-1.35511813965, 0.526724365234, 9.64145008545, 30.8549618321, -1.27480916031, -0.328244274809
3.521031141281128,-1.35511813965, 0.526724365234, 9.64145008545, 30.8549618321, -1.27480916031, -0.328244274809
3.5238211154937744,-1.35511813965, 0.526724365234, 9.64145008545, 30.8549618321, -1.27480916031, -0.328244274809
3.528346061706543,-1.35511813965, 0.526724365234, 9.64145008545, 30.8549618321, -1.27480916031, -0.328244274809
3.5327091217041016,-1.35511813965, 0.526724365234, 9.64145008545, 30.8549618321, -1.27480916031, -0.328244274809
3.543955087661743,-1.35511813965, 0.526724365234, 9.64145008545, 30.8549618321, -1.27480916031, -0.328244274809
3.559624195098877,-1.35511813965, 0.526724365234, 9.64145008545, 30.8549618321, -1.27480916031, -0.328244274809
3.563439130783081,-1.35511813965, 0.526724365234, 9.64145008545, 30.8549618321, -1.27480916031, -0.328244274809
3.5677850246429443,-1.35511813965, 0.526724365234, 9.64145008545, 30.8549618321, -1.27480916031, -0.328244274809
3.5766282081604004,-1.5322890625, 0.524330163574, 9.63905588379, 30.7709923664, -1.19847328244, -0.274809160305
3.5797011852264404,-1.5322890625, 0.524330163574, 9.63905588379, 30.7709923664, -1.19847328244, -0.274809160305
3.5871901512145996,-1.5322890625, 0.524330163574, 9.63905588379, 30.7709923664, -1.19847328244, -0.274809160305
3.591762065887451,-1.5322890625, 0.524330163574, 9.63905588379, 30.7709923664, -1.19847328244, -0.274809160305
3.5960640907287598,-1.5322890625, 0.524330163574, 9.63905588379, 30.7709923664, -1.19847328244, -0.274809160305
3.601595163345337,-1.5322890625, 0.524330163574, 9.63905588379, 30.7709923664, -1.19847328244, -0.274809160305
3.609739065170288,-1.5322890625, 0.524330163574, 9.63905588379, 30.7709923664, -1.19847328244, -0.274809160305
3.6140010356903076,-1.5322890625, 0.524330163574, 9.63905588379, 30.7709923664, -1.19847328244, -0.274809160305
3.617525100708008,-1.5322890625, 0.524330163574, 9.63905588379, 30.7709923664, -1.19847328244, -0.274809160305
3.6210501194000244,-1.5322890625, 0.524330163574, 9.63905588379, 30.7709923664, -1.19847328244, -0.274809160305
3.624272108078003,-1.5322890625, 0.524330163574, 9.63905588379, 30.7709923664, -1.19847328244, -0.274809160305
3.62900710105896,-1.5322890625, 0.524330163574, 9.63905588379, 30.7709923664, -1.19847328244, -0.274809160305
3.632596015930176,-1.5322890625, 0.524330163574, 9.63905588379, 30.7709923664, -1.19847328244, -0.274809160305
3.6403160095214844,-1.5322890625, 0.524330163574, 9.63905588379, 30.7709923664, -1.19847328244, -0.274809160305
3.6438310146331787,-1.5322890625, 0.524330163574, 9.63905588379, 30.7709923664, -1.19847328244, -0.274809160305
3.646996021270752,-1.5322890625, 0.524330163574, 9.63905588379, 30.7709923664, -1.19847328244, -0.274809160305
3.6491010189056396,-1.5322890625, 0.524330163574, 9.63905588379, 30.7709923664, -1.19847328244, -0.274809160305
3.652409076690674,-1.5322890625, 0.524330163574, 9.63905588379, 30.7709923664, -1.19847328244, -0.274809160305
3.6575140953063965,-1.5322890625, 0.524330163574, 9.63905588379, 30.7709923664, -1.19847328244, -0.274809160305
3.669985055923462,-1.5322890625, 0.524330163574, 9.63905588379, 30.7709923664, -1.19847328244, -0.274809160305
3.6924471855163574,-1.52271225586, 0.536301171875, 9.57680664062, 30.8015267176, -1.27480916031, -0.351145038168
3.69608998298645,-1.52271225586, 0.536301171875, 9.57680664062, 30.8015267176, -1.27480916031, -0.351145038168
3.7021939754486084,-1.52271225586, 0.536301171875, 9.57680664062, 30.8015267176, -1.27480916031, -0.351145038168
3.706573009490967,-1.52271225586, 0.536301171875, 9.57680664062, 30.8015267176, -1.27480916031, -0.351145038168
3.7115070819854736,-1.52271225586, 0.536301171875, 9.57680664062, 30.8015267176, -1.27480916031, -0.351145038168
3.716078996658325,-1.52271225586, 0.536301171875, 9.57680664062, 30.8015267176, -1.27480916031, -0.351145038168
3.720515012741089,-1.52271225586, 0.536301171875, 9.57680664062, 30.8015267176, -1.27480916031, -0.351145038168
3.7248950004577637,-1.52271225586, 0.536301171875, 9.57680664062, 30.8015267176, -1.27480916031, -0.351145038168
3.73262619972229,-1.52271225586, 0.536301171875, 9.57680664062, 30.8015267176, -1.27480916031, -0.351145038168
3.741788148880005,-1.52271225586, 0.536301171875, 9.57680664062, 30.8015267176, -1.27480916031, -0.351145038168
3.7450711727142334,-1.52271225586, 0.536301171875, 9.57680664062, 30.8015267176, -1.27480916031, -0.351145038168
3.748775005340576,-1.52271225586, 0.536301171875, 9.57680664062, 30.8015267176, -1.27480916031, -0.351145038168
3.752336025238037,-1.52271225586, 0.536301171875, 9.57680664062, 30.8015267176, -1.27480916031, -0.351145038168
3.7565970420837402,-1.52271225586, 0.536301171875, 9.57680664062, 30.8015267176, -1.27480916031, -0.351145038168
3.7647440433502197,-1.52271225586, 0.536301171875, 9.57680664062, 30.8015267176, -1.27480916031, -0.351145038168
3.7685160636901855,-1.52271225586, 0.536301171875, 9.57680664062, 30.8015267176, -1.27480916031, -0.351145038168
3.7772130966186523,-1.35272393799, 0.46447512207, 9.58877764893, 30.8091603053, -1.03816793893, -0.236641221374
3.7820839881896973,-1.35272393799, 0.46447512207, 9.58877764893, 30.8091603053, -1.03816793893, -0.236641221374
3.786600112915039,-1.35272393799, 0.46447512207, 9.58877764893, 30.8091603053, -1.03816793893, -0.236641221374
3.7932560443878174,-1.35272393799, 0.46447512207, 9.58877764893, 30.8091603053, -1.03816793893, -0.236641221374
3.7995760440826416,-1.35272393799, 0.46447512207, 9.58877764893, 30.8091603053, -1.03816793893, -0.236641221374
3.803605079650879,-1.35272393799, 0.46447512207, 9.58877764893, 30.8091603053, -1.03816793893, -0.236641221374
3.8079521656036377,-1.35272393799, 0.46447512207, 9.58877764893, 30.8091603053, -1.03816793893, -0.236641221374
3.811436176300049,-1.35272393799, 0.46447512207, 9.58877764893, 30.8091603053, -1.03816793893, -0.236641221374
3.8157031536102295,-1.35272393799, 0.46447512207, 9.58877764893, 30.8091603053, -1.03816793893, -0.236641221374
3.820730209350586,-1.35272393799, 0.46447512207, 9.58877764893, 30.8091603053, -1.03816793893, -0.236641221374
3.82502818107605,-1.35272393799, 0.46447512207, 9.58877764893, 30.8091603053, -1.03816793893, -0.236641221374
3.829041004180908,-1.35272393799, 0.46447512207, 9.58877764893, 30.8091603053, -1.03816793893, -0.236641221374
3.8324451446533203,-1.35272393799, 0.46447512207, 9.58877764893, 30.8091603053, -1.03816793893, -0.236641221374
3.839862108230591,-1.35272393799, 0.46447512207, 9.58877764893, 30.8091603053, -1.03816793893, -0.236641221374
3.8422930240631104,-1.35272393799, 0.46447512207, 9.58877764893, 30.8091603053, -1.03816793893, -0.236641221374
3.8475430011749268,-1.35272393799, 0.46447512207, 9.58877764893, 30.8091603053, -1.03816793893, -0.236641221374
3.859827995300293,-1.35272393799, 0.46447512207, 9.58877764893, 30.8091603053, -1.03816793893, -0.236641221374
3.8675220012664795,-1.35272393799, 0.46447512207, 9.58877764893, 30.8091603053, -1.03816793893, -0.236641221374
3.8713951110839844,-1.35272393799, 0.46447512207, 9.58877764893, 30.8091603053, -1.03816793893, -0.236641221374
3.8807129859924316,-1.36708914795, 0.476446130371, 9.45949075928, 31.0152671756, -1.16030534351, -0.351145038168
3.8833680152893066,-1.36708914795, 0.476446130371, 9.45949075928, 31.0152671756, -1.16030534351, -0.351145038168
3.886331081390381,-1.36708914795, 0.476446130371, 9.45949075928, 31.0152671756, -1.16030534351, -0.351145038168
3.8901431560516357,-1.36708914795, 0.476446130371, 9.45949075928, 31.0152671756, -1.16030534351, -0.351145038168
3.8938660621643066,-1.36708914795, 0.476446130371, 9.45949075928, 31.0152671756, -1.16030534351, -0.351145038168
3.8966920375823975,-1.36708914795, 0.476446130371, 9.45949075928, 31.0152671756, -1.16030534351, -0.351145038168
3.899651050567627,-1.36708914795, 0.476446130371, 9.45949075928, 31.0152671756, -1.16030534351, -0.351145038168
3.901506185531616,-1.36708914795, 0.476446130371, 9.45949075928, 31.0152671756, -1.16030534351, -0.351145038168
3.904242992401123,-1.36708914795, 0.476446130371, 9.45949075928, 31.0152671756, -1.16030534351, -0.351145038168
3.9087212085723877,-1.36708914795, 0.476446130371, 9.45949075928, 31.0152671756, -1.16030534351, -0.351145038168
3.9123129844665527,-1.36708914795, 0.476446130371, 9.45949075928, 31.0152671756, -1.16030534351, -0.351145038168
3.9156410694122314,-1.36708914795, 0.476446130371, 9.45949075928, 31.0152671756, -1.16030534351, -0.351145038168
3.91762113571167,-1.36708914795, 0.476446130371, 9.45949075928, 31.0152671756, -1.16030534351, -0.351145038168
3.9194960594177246,-1.36708914795, 0.476446130371, 9.45949075928, 31.0152671756, -1.16030534351, -0.351145038168
3.9213390350341797,-1.36708914795, 0.476446130371, 9.45949075928, 31.0152671756, -1.16030534351, -0.351145038168
3.9234671592712402,-1.36708914795, 0.476446130371, 9.45949075928, 31.0152671756, -1.16030534351, -0.351145038168
3.925499200820923,-1.36708914795, 0.476446130371, 9.45949075928, 31.0152671756, -1.16030534351, -0.351145038168
3.9279000759124756,-1.36708914795, 0.476446130371, 9.45949075928, 31.0152671756, -1.16030534351, -0.351145038168
3.92992901802063,-1.36708914795, 0.476446130371, 9.45949075928, 31.0152671756, -1.16030534351, -0.351145038168
3.9356911182403564,-1.36708914795, 0.476446130371, 9.45949075928, 31.0152671756, -1.16030534351, -0.351145038168
3.9379241466522217,-1.36708914795, 0.476446130371, 9.45949075928, 31.0152671756, -1.16030534351, -0.351145038168
3.9397971630096436,-1.36708914795, 0.476446130371, 9.45949075928, 31.0152671756, -1.16030534351, -0.351145038168
3.9416611194610596,-1.36708914795, 0.476446130371, 9.45949075928, 31.0152671756, -1.16030534351, -0.351145038168
3.9436609745025635,-1.36708914795, 0.476446130371, 9.45949075928, 31.0152671756, -1.16030534351, -0.351145038168
3.9459919929504395,-1.36708914795, 0.476446130371, 9.45949075928, 31.0152671756, -1.16030534351, -0.351145038168
3.9574501514434814,-1.36708914795, 0.476446130371, 9.45949075928, 31.0152671756, -1.16030534351, -0.351145038168
3.9609341621398926,-1.36708914795, 0.476446130371, 9.45949075928, 31.0152671756, -1.16030534351, -0.351145038168
3.964686155319214,-1.36708914795, 0.476446130371, 9.45949075928, 31.0152671756, -1.16030534351, -0.351145038168
3.968299150466919,-1.36708914795, 0.476446130371, 9.45949075928, 31.0152671756, -1.16030534351, -0.351145038168
3.9722890853881836,-1.36708914795, 0.476446130371, 9.45949075928, 31.0152671756, -1.16030534351, -0.351145038168
3.99206805229187,-1.26892687988, 0.517147558594, 9.72524714355, 30.8549618321, -1.28244274809, -0.396946564885
3.997098207473755,-1.26892687988, 0.517147558594, 9.72524714355, 30.8549618321, -1.28244274809, -0.396946564885
4.001981019973755,-1.26892687988, 0.517147558594, 9.72524714355, 30.8549618321, -1.28244274809, -0.396946564885
4.006116151809692,-1.26892687988, 0.517147558594, 9.72524714355, 30.8549618321, -1.28244274809, -0.396946564885
4.015426158905029,-1.26892687988, 0.517147558594, 9.72524714355, 30.8549618321, -1.28244274809, -0.396946564885
4.019529104232788,-1.26892687988, 0.517147558594, 9.72524714355, 30.8549618321, -1.28244274809, -0.396946564885
4.023284196853638,-1.26892687988, 0.517147558594, 9.72524714355, 30.8549618321, -1.28244274809, -0.396946564885
4.02678108215332,-1.26892687988, 0.517147558594, 9.72524714355, 30.8549618321, -1.28244274809, -0.396946564885
4.030256032943726,-1.26892687988, 0.517147558594, 9.72524714355, 30.8549618321, -1.28244274809, -0.396946564885
4.038531064987183,-1.26892687988, 0.517147558594, 9.72524714355, 30.8549618321, -1.28244274809, -0.396946564885
4.046947002410889,-1.26892687988, 0.517147558594, 9.72524714355, 30.8549618321, -1.28244274809, -0.396946564885
4.050455093383789,-1.26892687988, 0.517147558594, 9.72524714355, 30.8549618321, -1.28244274809, -0.396946564885
4.052617073059082,-1.26892687988, 0.517147558594, 9.72524714355, 30.8549618321, -1.28244274809, -0.396946564885
4.056658983230591,-1.26892687988, 0.517147558594, 9.72524714355, 30.8549618321, -1.28244274809, -0.396946564885
4.06134819984436,-1.26892687988, 0.517147558594, 9.72524714355, 30.8549618321, -1.28244274809, -0.396946564885
4.066723108291626,-1.26892687988, 0.517147558594, 9.72524714355, 30.8549618321, -1.28244274809, -0.396946564885
4.074454069137573,-1.26892687988, 0.517147558594, 9.72524714355, 30.8549618321, -1.28244274809, -0.396946564885
4.085107088088989,-1.34554133301, 0.502782348633, 9.5001921875, 30.9160305344, -1.22900763359, -0.404580152672
4.089195013046265,-1.34554133301, 0.502782348633, 9.5001921875, 30.9160305344, -1.22900763359, -0.404580152672
4.093111038208008,-1.34554133301, 0.502782348633, 9.5001921875, 30.9160305344, -1.22900763359, -0.404580152672
4.096719026565552,-1.34554133301, 0.502782348633, 9.5001921875, 30.9160305344, -1.22900763359, -0.404580152672
4.100500106811523,-1.34554133301, 0.502782348633, 9.5001921875, 30.9160305344, -1.22900763359, -0.404580152672
4.1041741371154785,-1.34554133301, 0.502782348633, 9.5001921875, 30.9160305344, -1.22900763359, -0.404580152672
4.108218193054199,-1.34554133301, 0.502782348633, 9.5001921875, 30.9160305344, -1.22900763359, -0.404580152672
4.111954212188721,-1.34554133301, 0.502782348633, 9.5001921875, 30.9160305344, -1.22900763359, -0.404580152672
4.115647077560425,-1.34554133301, 0.502782348633, 9.5001921875, 30.9160305344, -1.22900763359, -0.404580152672
4.1180260181427,-1.34554133301, 0.502782348633, 9.5001921875, 30.9160305344, -1.22900763359, -0.404580152672
4.122280120849609,-1.34554133301, 0.502782348633, 9.5001921875, 30.9160305344, -1.22900763359, -0.404580152672
4.127135992050171,-1.34554133301, 0.502782348633, 9.5001921875, 30.9160305344, -1.22900763359, -0.404580152672
4.140655994415283,-1.34554133301, 0.502782348633, 9.5001921875, 30.9160305344, -1.22900763359, -0.404580152672
4.150228977203369,-1.34554133301, 0.502782348633, 9.5001921875, 30.9160305344, -1.22900763359, -0.404580152672
4.15340518951416,-1.34554133301, 0.502782348633, 9.5001921875, 30.9160305344, -1.22900763359, -0.404580152672
4.157358169555664,-1.34554133301, 0.502782348633, 9.5001921875, 30.9160305344, -1.22900763359, -0.404580152672
4.174870014190674,-1.34554133301, 0.502782348633, 9.5001921875, 30.9160305344, -1.22900763359, -0.404580152672
4.179462194442749,-1.34554133301, 0.502782348633, 9.5001921875, 30.9160305344, -1.22900763359, -0.404580152672
4.193688154220581,-1.38384855957, 0.541089575195, 9.57920084229, 30.9160305344, -1.09160305344, -0.320610687023
4.2003700733184814,-1.38384855957, 0.541089575195, 9.57920084229, 30.9160305344, -1.09160305344, -0.320610687023
4.205954074859619,-1.38384855957, 0.541089575195, 9.57920084229, 30.9160305344, -1.09160305344, -0.320610687023
4.211831092834473,-1.38384855957, 0.541089575195, 9.57920084229, 30.9160305344, -1.09160305344, -0.320610687023
4.216018199920654,-1.38384855957, 0.541089575195, 9.57920084229, 30.9160305344, -1.09160305344, -0.320610687023
4.2223591804504395,-1.38384855957, 0.541089575195, 9.57920084229, 30.9160305344, -1.09160305344, -0.320610687023
4.226078033447266,-1.38384855957, 0.541089575195, 9.57920084229, 30.9160305344, -1.09160305344, -0.320610687023
4.231542110443115,-1.38384855957, 0.541089575195, 9.57920084229, 30.9160305344, -1.09160305344, -0.320610687023
4.23914909362793,-1.38384855957, 0.541089575195, 9.57920084229, 30.9160305344, -1.09160305344, -0.320610687023
4.2419281005859375,-1.38384855957, 0.541089575195, 9.57920084229, 30.9160305344, -1.09160305344, -0.320610687023
4.2477641105651855,-1.38384855957, 0.541089575195, 9.57920084229, 30.9160305344, -1.09160305344, -0.320610687023
4.249511003494263,-1.38384855957, 0.541089575195, 9.57920084229, 30.9160305344, -1.09160305344, -0.320610687023
4.251806020736694,-1.38384855957, 0.541089575195, 9.57920084229, 30.9160305344, -1.09160305344, -0.320610687023
4.254044055938721,-1.38384855957, 0.541089575195, 9.57920084229, 30.9160305344, -1.09160305344, -0.320610687023
4.256008148193359,-1.38384855957, 0.541089575195, 9.57920084229, 30.9160305344, -1.09160305344, -0.320610687023
4.258210182189941,-1.38384855957, 0.541089575195, 9.57920084229, 30.9160305344, -1.09160305344, -0.320610687023
4.260163068771362,-1.38384855957, 0.541089575195, 9.57920084229, 30.9160305344, -1.09160305344, -0.320610687023
4.263313055038452,-1.38384855957, 0.541089575195, 9.57920084229, 30.9160305344, -1.09160305344, -0.320610687023
4.26804518699646,-1.38384855957, 0.541089575195, 9.57920084229, 30.9160305344, -1.09160305344, -0.320610687023
4.279841184616089,-1.42694418945, 0.536301171875, 9.60553706055, 30.893129771, -0.847328244275, -0.206106870229
4.285737037658691,-1.42694418945, 0.536301171875, 9.60553706055, 30.893129771, -0.847328244275, -0.206106870229
4.290089130401611,-1.42694418945, 0.536301171875, 9.60553706055, 30.893129771, -0.847328244275, -0.206106870229
4.293688058853149,-1.42694418945, 0.536301171875, 9.60553706055, 30.893129771, -0.847328244275, -0.206106870229
4.297260046005249,-1.42694418945, 0.536301171875, 9.60553706055, 30.893129771, -0.847328244275, -0.206106870229
4.301391124725342,-1.42694418945, 0.536301171875, 9.60553706055, 30.893129771, -0.847328244275, -0.206106870229
4.308773040771484,-1.42694418945, 0.536301171875, 9.60553706055, 30.893129771, -0.847328244275, -0.206106870229
4.313064098358154,-1.42694418945, 0.536301171875, 9.60553706055, 30.893129771, -0.847328244275, -0.206106870229
4.318436145782471,-1.42694418945, 0.536301171875, 9.60553706055, 30.893129771, -0.847328244275, -0.206106870229
4.32264518737793,-1.42694418945, 0.536301171875, 9.60553706055, 30.893129771, -0.847328244275, -0.206106870229
4.326920032501221,-1.42694418945, 0.536301171875, 9.60553706055, 30.893129771, -0.847328244275, -0.206106870229
4.329617977142334,-1.42694418945, 0.536301171875, 9.60553706055, 30.893129771, -0.847328244275, -0.206106870229
4.339958190917969,-1.42694418945, 0.536301171875, 9.60553706055, 30.893129771, -0.847328244275, -0.206106870229
4.3467020988464355,-1.42694418945, 0.536301171875, 9.60553706055, 30.893129771, -0.847328244275, -0.206106870229
4.370321035385132,-1.42694418945, 0.536301171875, 9.60553706055, 30.893129771, -0.847328244275, -0.206106870229
4.384913206100464,-1.34554133301, 0.493205541992, 9.51934580078, 30.8854961832, -1.22900763359, -0.259541984733
4.398952007293701,-1.34554133301, 0.493205541992, 9.51934580078, 30.8854961832, -1.22900763359, -0.259541984733
4.403294086456299,-1.34554133301, 0.493205541992, 9.51934580078, 30.8854961832, -1.22900763359, -0.259541984733
4.413731098175049,-1.34554133301, 0.493205541992, 9.51934580078, 30.8854961832, -1.22900763359, -0.259541984733
4.422863006591797,-1.34554133301, 0.493205541992, 9.51934580078, 30.8854961832, -1.22900763359, -0.259541984733
4.426954984664917,-1.34554133301, 0.493205541992, 9.51934580078, 30.8854961832, -1.22900763359, -0.259541984733
4.442077159881592,-1.34554133301, 0.493205541992, 9.51934580078, 30.8854961832, -1.22900763359, -0.259541984733
4.446983098983765,-1.34554133301, 0.493205541992, 9.51934580078, 30.8854961832, -1.22900763359, -0.259541984733
4.459581136703491,-1.34554133301, 0.493205541992, 9.51934580078, 30.8854961832, -1.22900763359, -0.259541984733
4.465736150741577,-1.34554133301, 0.493205541992, 9.51934580078, 30.8854961832, -1.22900763359, -0.259541984733
4.48407506942749,-1.36708914795, 0.569819995117, 9.66539210205, 30.6106870229, -1.03816793893, -0.24427480916
4.487884998321533,-1.36708914795, 0.569819995117, 9.66539210205, 30.6106870229, -1.03816793893, -0.24427480916
4.490701198577881,-1.36708914795, 0.569819995117, 9.66539210205, 30.6106870229, -1.03816793893, -0.24427480916
4.4932780265808105,-1.36708914795, 0.569819995117, 9.66539210205, 30.6106870229, -1.03816793893, -0.24427480916
4.495855093002319,-1.36708914795, 0.569819995117, 9.66539210205, 30.6106870229, -1.03816793893, -0.24427480916
4.4993040561676025,-1.36708914795, 0.569819995117, 9.66539210205, 30.6106870229, -1.03816793893, -0.24427480916
4.502788066864014,-1.36708914795, 0.569819995117, 9.66539210205, 30.6106870229, -1.03816793893, -0.24427480916
4.505383014678955,-1.36708914795, 0.569819995117, 9.66539210205, 30.6106870229, -1.03816793893, -0.24427480916
4.508784055709839,-1.36708914795, 0.569819995117, 9.66539210205, 30.6106870229, -1.03816793893, -0.24427480916
4.511720180511475,-1.36708914795, 0.569819995117, 9.66539210205, 30.6106870229, -1.03816793893, -0.24427480916
4.515062093734741,-1.36708914795, 0.569819995117, 9.66539210205, 30.6106870229, -1.03816793893, -0.24427480916
4.51850700378418,-1.36708914795, 0.569819995117, 9.66539210205, 30.6106870229, -1.03816793893, -0.24427480916
4.5209691524505615,-1.36708914795, 0.569819995117, 9.66539210205, 30.6106870229, -1.03816793893, -0.24427480916
4.523646116256714,-1.36708914795, 0.569819995117, 9.66539210205, 30.6106870229, -1.03816793893, -0.24427480916
4.526534080505371,-1.36708914795, 0.569819995117, 9.66539210205, 30.6106870229, -1.03816793893, -0.24427480916
4.529281139373779,-1.36708914795, 0.569819995117, 9.66539210205, 30.6106870229, -1.03816793893, -0.24427480916
4.537744998931885,-1.36708914795, 0.569819995117, 9.66539210205, 30.6106870229, -1.03816793893, -0.24427480916
4.54417610168457,-1.36708914795, 0.569819995117, 9.66539210205, 30.6106870229, -1.03816793893, -0.24427480916
4.546576976776123,-1.36708914795, 0.569819995117, 9.66539210205, 30.6106870229, -1.03816793893, -0.24427480916
4.548427104949951,-1.36708914795, 0.569819995117, 9.66539210205, 30.6106870229, -1.03816793893, -0.24427480916
4.550290107727051,-1.36708914795, 0.569819995117, 9.66539210205, 30.6106870229, -1.03816793893, -0.24427480916
4.55237603187561,-1.36708914795, 0.569819995117, 9.66539210205, 30.6106870229, -1.03816793893, -0.24427480916
4.554323196411133,-1.36708914795, 0.569819995117, 9.66539210205, 30.6106870229, -1.03816793893, -0.24427480916
4.562686204910278,-1.36708914795, 0.569819995117, 9.66539210205, 30.6106870229, -1.03816793893, -0.24427480916
4.567234992980957,-1.36708914795, 0.569819995117, 9.66539210205, 30.6106870229, -1.03816793893, -0.24427480916
4.5791261196136475,-1.36708914795, 0.569819995117, 9.66539210205, 30.6106870229, -1.03816793893, -0.24427480916
4.588173151016235,-1.35032973633, 0.545877978516, 9.59117185059, 30.6870229008, -1.07633587786, -0.0610687022901
4.591820001602173,-1.35032973633, 0.545877978516, 9.59117185059, 30.6870229008, -1.07633587786, -0.0610687022901
4.5952231884002686,-1.35032973633, 0.545877978516, 9.59117185059, 30.6870229008, -1.07633587786, -0.0610687022901
4.598926067352295,-1.35032973633, 0.545877978516, 9.59117185059, 30.6870229008, -1.07633587786, -0.0610687022901
